,timestamp,accelX,accelY,accelZ,gyroX,gyroY,gyroZ,rotX,rotY,rotZ,rotS,features,prediction
0,1569974879888,-7.448511,4.028423,4.643943,0.0,0.0,0.0,0.0,0.0,0.0,0.0,"(10,[0,1,2],[-7.448511,4.028423,4.643943])",1
1,1569974879889,-7.6305327,4.24158,4.4762917,0.0,0.0,0.0,0.0,0.0,0.0,0.0,"(10,[0,1,2],[-7.6305327,4.24158,4.4762917])",1
2,1569974879890,-7.697593,4.358936,4.4212065,0.0,0.0,0.0,0.0,0.0,0.0,0.0,"(10,[0,1,2],[-7.697593,4.358936,4.4212065])",1
3,1569974879892,-7.697593,4.3541455,4.512217,0.0,0.0,0.0,0.0,0.0,0.0,0.0,"(10,[0,1,2],[-7.697593,4.3541455,4.512217])",1
4,1569974879894,-7.7167535,4.1936793,4.7014236,0.0,0.0,0.0,0.0,0.0,0.0,0.0,"(10,[0,1,2],[-7.7167535,4.1936793,4.7014236])",1
5,1569974879896,-7.671248,4.0044727,4.8139896,0.0,0.0,0.0,0.0,0.0,0.0,0.0,"(10,[0,1,2],[-7.671248,4.0044727,4.8139896])",1
6,1569974879897,-7.709568,4.112249,4.663103,0.0,0.0,0.0,0.0,0.0,0.0,0.0,"(10,[0,1,2],[-7.709568,4.112249,4.663103])",1
7,1569974879899,-7.6592727,3.999683,4.749324,0.0,0.0,0.0,0.0,0.0,0.0,0.0,"(10,[0,1,2],[-7.6592727,3.999683,4.749324])",1
8,1569974879900,-7.664063,4.009263,4.703819,0.0,0.0,0.0,0.0,0.0,0.0,0.0,"(10,[0,1,2],[-7.664063,4.009263,4.703819])",1
9,1569974879902,-7.6305327,4.1553593,4.598438,0.0,0.0,0.0,0.0,0.0,0.0,0.0,"(10,[0,1,2],[-7.6305327,4.1553593,4.598438])",1
10,1569974879922,-7.6017923,4.2272096,4.5385623,0.0,0.0,0.0,0.0,0.0,0.0,0.0,"(10,[0,1,2],[-7.6017923,4.2272096,4.5385623])",1
11,1569974879923,-7.704778,4.160149,4.495452,0.0,0.0,0.0,0.0,0.0,0.0,0.0,"(10,[0,1,2],[-7.704778,4.160149,4.495452])",1
12,1569974879925,-7.6137676,4.181704,4.6104126,0.0,0.0,0.0,0.0,0.0,0.0,0.0,"(10,[0,1,2],[-7.6137676,4.181704,4.6104126])",1
13,1569974879926,-7.6401124,4.176914,4.6104126,0.0,0.0,0.0,0.0,0.0,0.0,0.0,"(10,[0,1,2],[-7.6401124,4.176914,4.6104126])",1
14,1569974879928,-7.6592727,4.2248144,4.5457473,0.0,0.0,0.0,0.0,0.0,0.0,0.0,"(10,[0,1,2],[-7.6592727,4.2248144,4.5457473])",1
15,1569974879929,-7.695198,4.129014,4.624783,0.0,0.0,0.0,0.0,0.0,0.0,0.0,"(10,[0,1,2],[-7.695198,4.129014,4.624783])",1
16,1569974879931,-7.553892,3.9709425,4.6726832,0.0,0.0,0.0,0.0,0.0,0.0,0.0,"(10,[0,1,2],[-7.553892,3.9709425,4.6726832])",1
17,1569974879932,-7.470066,3.9302273,4.756509,0.0,0.0,0.0,0.0,0.0,0.0,0.0,"(10,[0,1,2],[-7.470066,3.9302273,4.756509])",1
18,1569974879958,-7.470066,3.9302273,4.756509,0.051312663,0.0122173,0.025656331,0.0,0.0,0.0,0.0,"[-7.470066,3.9302273,4.756509,0.051312663,0.0122173,0.025656331,0.0,0.0,0.0,0.0]",1
19,1569974879960,-7.549102,4.0978785,4.6774735,0.051312663,0.0122173,0.025656331,0.0,0.0,0.0,0.0,"[-7.549102,4.0978785,4.6774735,0.051312663,0.0122173,0.025656331,0.0,0.0,0.0,0.0]",1
20,1569974879961,-7.6185575,4.26553,4.488267,0.051312663,0.0122173,0.025656331,0.0,0.0,0.0,0.0,"[-7.6185575,4.26553,4.488267,0.051312663,0.0122173,0.025656331,0.0,0.0,0.0,0.0]",1
21,1569974879966,-7.527547,4.24158,4.533772,0.051312663,0.0122173,0.025656331,0.0,0.0,0.0,0.0,"[-7.527547,4.24158,4.533772,0.051312663,0.0122173,0.025656331,0.0,0.0,0.0,0.0]",1
22,1569974879973,-7.472461,4.119434,4.567302,0.051312663,0.0122173,0.025656331,0.0,0.0,0.0,0.0,"[-7.472461,4.119434,4.567302,0.051312663,0.0122173,0.025656331,0.0,0.0,0.0,0.0]",1
23,1569974879973,-7.472461,4.119434,4.567302,0.051312663,0.0122173,0.025656331,0.0,0.0,0.0,0.0,"[-7.472461,4.119434,4.567302,0.051312663,0.0122173,0.025656331,0.0,0.0,0.0,0.0]",1
24,1569974879974,-7.472461,4.119434,4.567302,0.051312663,0.0122173,0.025656331,0.0,0.0,0.0,0.0,"[-7.472461,4.119434,4.567302,0.051312663,0.0122173,0.025656331,0.0,0.0,0.0,0.0]",1
25,1569974879976,-7.472461,4.119434,4.567302,0.051312663,0.0122173,0.025656331,0.15754628,0.49458516,0.166194,0.8384177,"[-7.472461,4.119434,4.567302,0.051312663,0.0122173,0.025656331,0.15754628,0.49458516,0.166194,0.8384177]",1
26,1569974879978,-7.472461,4.119434,4.567302,0.051312663,0.0122173,0.025656331,0.14368261,0.48910758,0.16944477,0.84345573,"[-7.472461,4.119434,4.567302,0.051312663,0.0122173,0.025656331,0.14368261,0.48910758,0.16944477,0.84345573]",1
27,1569974879982,-7.549102,4.0571632,4.514612,0.051312663,0.0122173,0.025656331,0.14368261,0.48910758,0.16944477,0.84345573,"[-7.549102,4.0571632,4.514612,0.051312663,0.0122173,0.025656331,0.14368261,0.48910758,0.16944477,0.84345573]",1
28,1569974879983,-7.599397,4.2080493,4.382886,0.051312663,0.0122173,0.025656331,0.14368261,0.48910758,0.16944477,0.84345573,"[-7.599397,4.2080493,4.382886,0.051312663,0.0122173,0.025656331,0.14368261,0.48910758,0.16944477,0.84345573]",1
29,1569974879984,-7.599397,4.2080493,4.382886,0.051312663,0.0122173,0.025656331,0.14368261,0.48910758,0.16944477,0.84345573,"[-7.599397,4.2080493,4.382886,0.051312663,0.0122173,0.025656331,0.14368261,0.48910758,0.16944477,0.84345573]",1
30,1569974879986,-7.599397,4.2080493,4.382886,0.051312663,0.0122173,0.025656331,0.1488741,0.48858657,0.1721104,0.84231687,"[-7.599397,4.2080493,4.382886,0.051312663,0.0122173,0.025656331,0.1488741,0.48858657,0.1721104,0.84231687]",1
31,1569974880008,-7.6592727,4.167334,4.387676,0.051312663,0.0122173,0.025656331,0.1488741,0.48858657,0.1721104,0.84231687,"[-7.6592727,4.167334,4.387676,0.051312663,0.0122173,0.025656331,0.1488741,0.48858657,0.1721104,0.84231687]",1
32,1569974880010,-7.575447,4.150569,4.409231,0.051312663,0.0122173,0.025656331,0.1488741,0.48858657,0.1721104,0.84231687,"[-7.575447,4.150569,4.409231,0.051312663,0.0122173,0.025656331,0.1488741,0.48858657,0.1721104,0.84231687]",1
33,1569974880011,-7.575447,4.150569,4.409231,0.051312663,0.0122173,0.025656331,0.1488741,0.48858657,0.1721104,0.84231687,"[-7.575447,4.150569,4.409231,0.051312663,0.0122173,0.025656331,0.1488741,0.48858657,0.1721104,0.84231687]",1
34,1569974880013,-7.575447,4.150569,4.409231,0.051312663,0.0122173,0.025656331,0.15870711,0.49243388,0.17114434,0.8384692,"[-7.575447,4.150569,4.409231,0.051312663,0.0122173,0.025656331,0.15870711,0.49243388,0.17114434,0.8384692]",1
35,1569974880028,-7.575447,4.150569,4.409231,0.010995571,0.00244346,0.00488692,0.15870711,0.49243388,0.17114434,0.8384692,"[-7.575447,4.150569,4.409231,0.010995571,0.00244346,0.00488692,0.15870711,0.49243388,0.17114434,0.8384692]",1
36,1569974880032,-7.4844365,4.152964,4.495452,0.010995571,0.00244346,0.00488692,0.15870711,0.49243388,0.17114434,0.8384692,"[-7.4844365,4.152964,4.495452,0.010995571,0.00244346,0.00488692,0.15870711,0.49243388,0.17114434,0.8384692]",1
37,1569974880035,-7.4748564,4.2152348,4.4331813,0.010995571,0.00244346,0.00488692,0.15870711,0.49243388,0.17114434,0.8384692,"[-7.4748564,4.2152348,4.4331813,0.010995571,0.00244346,0.00488692,0.15870711,0.49243388,0.17114434,0.8384692]",1
38,1569974880037,-7.4748564,4.2152348,4.4331813,0.010995571,0.00244346,0.00488692,0.15870711,0.49243388,0.17114434,0.8384692,"[-7.4748564,4.2152348,4.4331813,0.010995571,0.00244346,0.00488692,0.15870711,0.49243388,0.17114434,0.8384692]",1
39,1569974880040,-7.4748564,4.2152348,4.4331813,0.010995571,0.00244346,0.00488692,0.15134609,0.49402606,0.16663004,0.8398018,"[-7.4748564,4.2152348,4.4331813,0.010995571,0.00244346,0.00488692,0.15134609,0.49402606,0.16663004,0.8398018]",1
40,1569974880043,-7.5131764,4.1864944,4.4691067,0.010995571,0.00244346,0.00488692,0.15134609,0.49402606,0.16663004,0.8398018,"[-7.5131764,4.1864944,4.4691067,0.010995571,0.00244346,0.00488692,0.15134609,0.49402606,0.16663004,0.8398018]",1
41,1569974880045,-7.541917,4.1050634,4.5529323,0.010995571,0.00244346,0.00488692,0.15134609,0.49402606,0.16663004,0.8398018,"[-7.541917,4.1050634,4.5529323,0.010995571,0.00244346,0.00488692,0.15134609,0.49402606,0.16663004,0.8398018]",1
42,1569974880048,-7.541917,4.1050634,4.5529323,0.010995571,0.00244346,0.00488692,0.15134609,0.49402606,0.16663004,0.8398018,"[-7.541917,4.1050634,4.5529323,0.010995571,0.00244346,0.00488692,0.15134609,0.49402606,0.16663004,0.8398018]",1
43,1569974880050,-7.541917,4.1050634,4.5529323,0.010995571,0.00244346,0.00488692,0.15859085,0.5001002,0.16178933,0.8358067,"[-7.541917,4.1050634,4.5529323,0.010995571,0.00244346,0.00488692,0.15859085,0.5001002,0.16178933,0.8358067]",1
44,1569974880059,-7.541917,4.1050634,4.5529323,0.010995571,0.00244346,0.00488692,0.15859085,0.5001002,0.16178933,0.8358067,"[-7.541917,4.1050634,4.5529323,0.010995571,0.00244346,0.00488692,0.15859085,0.5001002,0.16178933,0.8358067]",1
45,1569974880075,-7.5155716,4.0882983,4.598438,0.010995571,0.00244346,0.00488692,0.15859085,0.5001002,0.16178933,0.8358067,"[-7.5155716,4.0882983,4.598438,0.010995571,0.00244346,0.00488692,0.15859085,0.5001002,0.16178933,0.8358067]",1
46,1569974880078,-7.5299416,4.160149,4.591253,0.010995571,0.00244346,0.00488692,0.15859085,0.5001002,0.16178933,0.8358067,"[-7.5299416,4.160149,4.591253,0.010995571,0.00244346,0.00488692,0.15859085,0.5001002,0.16178933,0.8358067]",1
47,1569974880081,-7.5299416,4.160149,4.591253,0.010995571,0.00244346,0.00488692,0.15638229,0.49300784,0.16954628,0.83889323,"[-7.5299416,4.160149,4.591253,0.010995571,0.00244346,0.00488692,0.15638229,0.49300784,0.16954628,0.83889323]",1
48,1569974880082,-7.5299416,4.160149,4.591253,0.010995571,0.00244346,0.00488692,0.15638229,0.49300784,0.16954628,0.83889323,"[-7.5299416,4.160149,4.591253,0.010995571,0.00244346,0.00488692,0.15638229,0.49300784,0.16954628,0.83889323]",1
49,1569974880084,-7.541917,4.2152348,4.5625124,0.010995571,0.00244346,0.00488692,0.15638229,0.49300784,0.16954628,0.83889323,"[-7.541917,4.2152348,4.5625124,0.010995571,0.00244346,0.00488692,0.15638229,0.49300784,0.16954628,0.83889323]",1
50,1569974880086,-7.573052,4.267925,4.528982,0.010995571,0.00244346,0.00488692,0.15638229,0.49300784,0.16954628,0.83889323,"[-7.573052,4.267925,4.528982,0.010995571,0.00244346,0.00488692,0.15638229,0.49300784,0.16954628,0.83889323]",1
51,1569974880088,-7.573052,4.267925,4.528982,0.010995571,0.00244346,0.00488692,0.1582583,0.49438176,0.1686027,0.8379225,"[-7.573052,4.267925,4.528982,0.010995571,0.00244346,0.00488692,0.1582583,0.49438176,0.1686027,0.8379225]",1
52,1569974880095,-7.573052,4.267925,4.528982,0.02809979,0.01588249,0.01588249,0.1582583,0.49438176,0.1686027,0.8379225,"[-7.573052,4.267925,4.528982,0.02809979,0.01588249,0.01588249,0.1582583,0.49438176,0.1686027,0.8379225]",1
53,1569974880096,-7.573052,4.267925,4.528982,0.02809979,0.01588249,0.01588249,0.1582583,0.49438176,0.1686027,0.8379225,"[-7.573052,4.267925,4.528982,0.02809979,0.01588249,0.01588249,0.1582583,0.49438176,0.1686027,0.8379225]",1
54,1569974880098,-7.5706573,4.27032,4.521797,0.02809979,0.01588249,0.01588249,0.1582583,0.49438176,0.1686027,0.8379225,"[-7.5706573,4.27032,4.521797,0.02809979,0.01588249,0.01588249,0.1582583,0.49438176,0.1686027,0.8379225]",1
55,1569974880100,-7.5874224,4.1888895,4.5792775,0.02809979,0.01588249,0.01588249,0.1582583,0.49438176,0.1686027,0.8379225,"[-7.5874224,4.1888895,4.5792775,0.02809979,0.01588249,0.01588249,0.1582583,0.49438176,0.1686027,0.8379225]",1
56,1569974880107,-7.5874224,4.1888895,4.5792775,0.02809979,0.01588249,0.01588249,0.15071031,0.49048176,0.17060119,0.84119517,"[-7.5874224,4.1888895,4.5792775,0.02809979,0.01588249,0.01588249,0.15071031,0.49048176,0.17060119,0.84119517]",1
57,1569974880115,-7.5874224,4.1888895,4.5792775,0.02809979,0.01588249,0.01588249,0.15071031,0.49048176,0.17060119,0.84119517,"[-7.5874224,4.1888895,4.5792775,0.02809979,0.01588249,0.01588249,0.15071031,0.49048176,0.17060119,0.84119517]",1
58,1569974880117,-7.527547,4.1936793,4.519402,0.02809979,0.01588249,0.01588249,0.15071031,0.49048176,0.17060119,0.84119517,"[-7.527547,4.1936793,4.519402,0.02809979,0.01588249,0.01588249,0.15071031,0.49048176,0.17060119,0.84119517]",1
59,1569974880119,-7.6089773,4.0882983,4.526587,0.02809979,0.01588249,0.01588249,0.15071031,0.49048176,0.17060119,0.84119517,"[-7.6089773,4.0882983,4.526587,0.02809979,0.01588249,0.01588249,0.15071031,0.49048176,0.17060119,0.84119517]",1
60,1569974880121,-7.6089773,4.0882983,4.526587,0.02809979,0.01588249,0.01588249,0.15679502,0.49186823,0.17104162,0.8391816,"[-7.6089773,4.0882983,4.526587,0.02809979,0.01588249,0.01588249,0.15679502,0.49186823,0.17104162,0.8391816]",1
61,1569974880134,-7.6089773,4.0882983,4.526587,0.02809979,0.01588249,0.01588249,0.15679502,0.49186823,0.17104162,0.8391816,"[-7.6089773,4.0882983,4.526587,0.02809979,0.01588249,0.01588249,0.15679502,0.49186823,0.17104162,0.8391816]",1
62,1569974880136,-7.647298,4.160149,4.509822,0.02809979,0.01588249,0.01588249,0.15679502,0.49186823,0.17104162,0.8391816,"[-7.647298,4.160149,4.509822,0.02809979,0.01588249,0.01588249,0.15679502,0.49186823,0.17104162,0.8391816]",1
63,1569974880138,-7.6401124,4.150569,4.4547367,0.02809979,0.01588249,0.01588249,0.15679502,0.49186823,0.17104162,0.8391816,"[-7.6401124,4.150569,4.4547367,0.02809979,0.01588249,0.01588249,0.15679502,0.49186823,0.17104162,0.8391816]",1
64,1569974880140,-7.6401124,4.150569,4.4547367,0.02809979,0.01588249,0.01588249,0.15990798,0.49363345,0.17008369,0.83775115,"[-7.6401124,4.150569,4.4547367,0.02809979,0.01588249,0.01588249,0.15990798,0.49363345,0.17008369,0.83775115]",1
65,1569974880153,-7.6401124,4.150569,4.4547367,0.02809979,0.01588249,0.01588249,0.15990798,0.49363345,0.17008369,0.83775115,"[-7.6401124,4.150569,4.4547367,0.02809979,0.01588249,0.01588249,0.15990798,0.49363345,0.17008369,0.83775115]",1
66,1569974880155,-7.6329274,4.232,4.497847,0.02809979,0.01588249,0.01588249,0.15990798,0.49363345,0.17008369,0.83775115,"[-7.6329274,4.232,4.497847,0.02809979,0.01588249,0.01588249,0.15990798,0.49363345,0.17008369,0.83775115]",1
67,1569974880159,-7.582632,4.239185,4.526587,0.02809979,0.01588249,0.01588249,0.15990798,0.49363345,0.17008369,0.83775115,"[-7.582632,4.239185,4.526587,0.02809979,0.01588249,0.01588249,0.15990798,0.49363345,0.17008369,0.83775115]",1
68,1569974880162,-7.582632,4.239185,4.526587,0.02809979,0.01588249,0.01588249,0.15713078,0.49302432,0.16979824,0.8386927,"[-7.582632,4.239185,4.526587,0.02809979,0.01588249,0.01588249,0.15713078,0.49302432,0.16979824,0.8386927]",1
69,1569974880172,-7.582632,4.239185,4.526587,0.025656331,-0.01710422,-0.014660761,0.15713078,0.49302432,0.16979824,0.8386927,"[-7.582632,4.239185,4.526587,0.025656331,-0.01710422,-0.014660761,0.15713078,0.49302432,0.16979824,0.8386927]",1
70,1569974880175,-7.582632,4.239185,4.526587,0.025656331,-0.01710422,-0.014660761,0.15713078,0.49302432,0.16979824,0.8386927,"[-7.582632,4.239185,4.526587,0.025656331,-0.01710422,-0.014660761,0.15713078,0.49302432,0.16979824,0.8386927]",1
71,1569974880177,-7.5395217,4.2296047,4.5696974,0.025656331,-0.01710422,-0.014660761,0.15713078,0.49302432,0.16979824,0.8386927,"[-7.5395217,4.2296047,4.5696974,0.025656331,-0.01710422,-0.014660761,0.15713078,0.49302432,0.16979824,0.8386927]",1
72,1569974880179,-7.541917,4.167334,4.550537,0.025656331,-0.01710422,-0.014660761,0.15713078,0.49302432,0.16979824,0.8386927,"[-7.541917,4.167334,4.550537,0.025656331,-0.01710422,-0.014660761,0.15713078,0.49302432,0.16979824,0.8386927]",1
73,1569974880181,-7.541917,4.167334,4.550537,0.025656331,-0.01710422,-0.014660761,0.15509827,0.49593863,0.1656589,0.8381805,"[-7.541917,4.167334,4.550537,0.025656331,-0.01710422,-0.014660761,0.15509827,0.49593863,0.1656589,0.8381805]",1
74,1569974880192,-7.541917,4.167334,4.550537,0.025656331,-0.01710422,-0.014660761,0.15509827,0.49593863,0.1656589,0.8381805,"[-7.541917,4.167334,4.550537,0.025656331,-0.01710422,-0.014660761,0.15509827,0.49593863,0.1656589,0.8381805]",1
75,1569974880193,-7.599397,4.1002736,4.550537,0.025656331,-0.01710422,-0.014660761,0.15509827,0.49593863,0.1656589,0.8381805,"[-7.599397,4.1002736,4.550537,0.025656331,-0.01710422,-0.014660761,0.15509827,0.49593863,0.1656589,0.8381805]",1
76,1569974880195,-7.556287,4.138594,4.5696974,0.025656331,-0.01710422,-0.014660761,0.15509827,0.49593863,0.1656589,0.8381805,"[-7.556287,4.138594,4.5696974,0.025656331,-0.01710422,-0.014660761,0.15509827,0.49593863,0.1656589,0.8381805]",1
77,1569974880197,-7.556287,4.138594,4.5696974,0.025656331,-0.01710422,-0.014660761,0.15848342,0.49581486,0.16701026,0.83735186,"[-7.556287,4.138594,4.5696974,0.025656331,-0.01710422,-0.014660761,0.15848342,0.49581486,0.16701026,0.83735186]",1
78,1569974880211,-7.556287,4.138594,4.5696974,0.025656331,-0.01710422,-0.014660761,0.15848342,0.49581486,0.16701026,0.83735186,"[-7.556287,4.138594,4.5696974,0.025656331,-0.01710422,-0.014660761,0.15848342,0.49581486,0.16701026,0.83735186]",1
79,1569974880212,-7.6209526,4.1960745,4.5744877,0.025656331,-0.01710422,-0.014660761,0.15848342,0.49581486,0.16701026,0.83735186,"[-7.6209526,4.1960745,4.5744877,0.025656331,-0.01710422,-0.014660761,0.15848342,0.49581486,0.16701026,0.83735186]",1
80,1569974880214,-7.577842,4.258345,4.505032,0.025656331,-0.01710422,-0.014660761,0.15848342,0.49581486,0.16701026,0.83735186,"[-7.577842,4.258345,4.505032,0.025656331,-0.01710422,-0.014660761,0.15848342,0.49581486,0.16701026,0.83735186]",1
81,1569974880216,-7.577842,4.258345,4.505032,0.025656331,-0.01710422,-0.014660761,0.15724073,0.4915397,0.17154132,0.8391887,"[-7.577842,4.258345,4.505032,0.025656331,-0.01710422,-0.014660761,0.15724073,0.4915397,0.17154132,0.8391887]",1
82,1569974880231,-7.577842,4.258345,4.505032,0.025656331,-0.01710422,-0.014660761,0.15724073,0.4915397,0.17154132,0.8391887,"[-7.577842,4.258345,4.505032,0.025656331,-0.01710422,-0.014660761,0.15724073,0.4915397,0.17154132,0.8391887]",1
83,1569974880232,-7.6017923,4.3230104,4.4834766,0.025656331,-0.01710422,-0.014660761,0.15724073,0.4915397,0.17154132,0.8391887,"[-7.6017923,4.3230104,4.4834766,0.025656331,-0.01710422,-0.014660761,0.15724073,0.4915397,0.17154132,0.8391887]",1
84,1569974880235,-7.565867,4.3565407,4.380491,0.025656331,-0.01710422,-0.014660761,0.15724073,0.4915397,0.17154132,0.8391887,"[-7.565867,4.3565407,4.380491,0.025656331,-0.01710422,-0.014660761,0.15724073,0.4915397,0.17154132,0.8391887]",1
85,1569974880239,-7.565867,4.3565407,4.380491,0.025656331,-0.01710422,-0.014660761,0.15191273,0.49377775,0.16701697,0.83976865,"[-7.565867,4.3565407,4.380491,0.025656331,-0.01710422,-0.014660761,0.15191273,0.49377775,0.16701697,0.83976865]",1
86,1569974880249,-7.565867,4.3565407,4.380491,-0.00610865,0.03420844,0.02321287,0.15191273,0.49377775,0.16701697,0.83976865,"[-7.565867,4.3565407,4.380491,-0.00610865,0.03420844,0.02321287,0.15191273,0.49377775,0.16701697,0.83976865]",1
87,1569974880251,-7.565867,4.3565407,4.380491,-0.00610865,0.03420844,0.02321287,0.15191273,0.49377775,0.16701697,0.83976865,"[-7.565867,4.3565407,4.380491,-0.00610865,0.03420844,0.02321287,0.15191273,0.49377775,0.16701697,0.83976865]",1
88,1569974880253,-7.5059915,4.263135,4.2918754,-0.00610865,0.03420844,0.02321287,0.15191273,0.49377775,0.16701697,0.83976865,"[-7.5059915,4.263135,4.2918754,-0.00610865,0.03420844,0.02321287,0.15191273,0.49377775,0.16701697,0.83976865]",1
89,1569974880254,-7.6137676,4.3301954,4.2008643,-0.00610865,0.03420844,0.02321287,0.15191273,0.49377775,0.16701697,0.83976865,"[-7.6137676,4.3301954,4.2008643,-0.00610865,0.03420844,0.02321287,0.15191273,0.49377775,0.16701697,0.83976865]",1
90,1569974880256,-7.6137676,4.3301954,4.2008643,-0.00610865,0.03420844,0.02321287,0.15513387,0.4931866,0.16883714,0.83916295,"[-7.6137676,4.3301954,4.2008643,-0.00610865,0.03420844,0.02321287,0.15513387,0.4931866,0.16883714,0.83916295]",1
91,1569974880269,-7.6137676,4.3301954,4.2008643,-0.00610865,0.03420844,0.02321287,0.15513387,0.4931866,0.16883714,0.83916295,"[-7.6137676,4.3301954,4.2008643,-0.00610865,0.03420844,0.02321287,0.15513387,0.4931866,0.16883714,0.83916295]",1
92,1569974880271,-7.656878,4.3325906,3.9853127,-0.00610865,0.03420844,0.02321287,0.15513387,0.4931866,0.16883714,0.83916295,"[-7.656878,4.3325906,3.9853127,-0.00610865,0.03420844,0.02321287,0.15513387,0.4931866,0.16883714,0.83916295]",1
93,1569974880272,-7.702383,4.24158,3.6763551,-0.00610865,0.03420844,0.02321287,0.15513387,0.4931866,0.16883714,0.83916295,"[-7.702383,4.24158,3.6763551,-0.00610865,0.03420844,0.02321287,0.15513387,0.4931866,0.16883714,0.83916295]",1
94,1569974880275,-7.702383,4.24158,3.6763551,-0.00610865,0.03420844,0.02321287,0.16285746,0.4953441,0.169047,0.836382,"[-7.702383,4.24158,3.6763551,-0.00610865,0.03420844,0.02321287,0.16285746,0.4953441,0.169047,0.836382]",1
95,1569974880288,-7.702383,4.24158,3.6763551,-0.00610865,0.03420844,0.02321287,0.16285746,0.4953441,0.169047,0.836382,"[-7.702383,4.24158,3.6763551,-0.00610865,0.03420844,0.02321287,0.16285746,0.4953441,0.169047,0.836382]",1
96,1569974880290,-7.95865,4.232,3.5661843,-0.00610865,0.03420844,0.02321287,0.16285746,0.4953441,0.169047,0.836382,"[-7.95865,4.232,3.5661843,-0.00610865,0.03420844,0.02321287,0.16285746,0.4953441,0.169047,0.836382]",1
97,1569974880296,-8.083191,4.3062453,3.5685792,-0.00610865,0.03420844,0.02321287,0.16285746,0.4953441,0.169047,0.836382,"[-8.083191,4.3062453,3.5685792,-0.00610865,0.03420844,0.02321287,0.16285746,0.4953441,0.169047,0.836382]",1
98,1569974880298,-8.083191,4.3062453,3.5685792,-0.00610865,0.03420844,0.02321287,0.16633222,0.4997317,0.16489781,0.8339128,"[-8.083191,4.3062453,3.5685792,-0.00610865,0.03420844,0.02321287,0.16633222,0.4997317,0.16489781,0.8339128]",1
99,1569974880307,-8.083191,4.3062453,3.5685792,-0.00610865,0.03420844,0.02321287,0.16633222,0.4997317,0.16489781,0.8339128,"[-8.083191,4.3062453,3.5685792,-0.00610865,0.03420844,0.02321287,0.16633222,0.4997317,0.16489781,0.8339128]",1
100,1569974880310,-7.92512,4.543352,3.7506008,-0.00610865,0.03420844,0.02321287,0.16633222,0.4997317,0.16489781,0.8339128,"[-7.92512,4.543352,3.7506008,-0.00610865,0.03420844,0.02321287,0.16633222,0.4997317,0.16489781,0.8339128]",1
101,1569974880312,-7.6281376,5.3145485,3.8320315,-0.00610865,0.03420844,0.02321287,0.16633222,0.4997317,0.16489781,0.8339128,"[-7.6281376,5.3145485,3.8320315,-0.00610865,0.03420844,0.02321287,0.16633222,0.4997317,0.16489781,0.8339128]",1
102,1569974880316,-7.6281376,5.3145485,3.8320315,-0.00610865,0.03420844,0.02321287,0.17655466,0.51235926,0.15300447,0.82638127,"[-7.6281376,5.3145485,3.8320315,-0.00610865,0.03420844,0.02321287,0.17655466,0.51235926,0.15300447,0.82638127]",1
103,1569974880326,-7.6281376,5.3145485,3.8320315,-0.28955,-0.07696899,-0.14782934,0.17655466,0.51235926,0.15300447,0.82638127,"[-7.6281376,5.3145485,3.8320315,-0.28955,-0.07696899,-0.14782934,0.17655466,0.51235926,0.15300447,0.82638127]",1
104,1569974880337,-7.6281376,5.3145485,3.8320315,-0.28955,-0.07696899,-0.14782934,0.17655466,0.51235926,0.15300447,0.82638127,"[-7.6281376,5.3145485,3.8320315,-0.28955,-0.07696899,-0.14782934,0.17655466,0.51235926,0.15300447,0.82638127]",1
105,1569974880339,-7.6233473,6.672525,3.5087037,-0.28955,-0.07696899,-0.14782934,0.17655466,0.51235926,0.15300447,0.82638127,"[-7.6233473,6.672525,3.5087037,-0.28955,-0.07696899,-0.14782934,0.17655466,0.51235926,0.15300447,0.82638127]",1
106,1569974880340,-8.289163,7.048543,3.3434474,-0.28955,-0.07696899,-0.14782934,0.17655466,0.51235926,0.15300447,0.82638127,"[-8.289163,7.048543,3.3434474,-0.28955,-0.07696899,-0.14782934,0.17655466,0.51235926,0.15300447,0.82638127]",1
107,1569974880342,-8.289163,7.048543,3.3434474,-0.28955,-0.07696899,-0.14782934,0.18307567,0.5315446,0.12932858,0.816834,"[-8.289163,7.048543,3.3434474,-0.28955,-0.07696899,-0.14782934,0.18307567,0.5315446,0.12932858,0.816834]",1
108,1569974880346,-8.6627865,6.0091043,3.515889,-0.28955,-0.07696899,-0.14782934,0.18307567,0.5315446,0.12932858,0.816834,"[-8.6627865,6.0091043,3.515889,-0.28955,-0.07696899,-0.14782934,0.18307567,0.5315446,0.12932858,0.816834]",1
109,1569974880348,-7.577842,4.6990285,4.1170387,-0.28955,-0.07696899,-0.14782934,0.18307567,0.5315446,0.12932858,0.816834,"[-7.577842,4.6990285,4.1170387,-0.28955,-0.07696899,-0.14782934,0.18307567,0.5315446,0.12932858,0.816834]",1
110,1569974880349,-7.577842,4.6990285,4.1170387,-0.28955,-0.07696899,-0.14782934,0.18307567,0.5315446,0.12932858,0.816834,"[-7.577842,4.6990285,4.1170387,-0.28955,-0.07696899,-0.14782934,0.18307567,0.5315446,0.12932858,0.816834]",1
111,1569974880352,-7.577842,4.6990285,4.1170387,-0.28955,-0.07696899,-0.14782934,0.19107522,0.52305573,0.14076905,0.81858844,"[-7.577842,4.6990285,4.1170387,-0.28955,-0.07696899,-0.14782934,0.19107522,0.52305573,0.14076905,0.81858844]",1
112,1569974880365,-7.577842,4.6990285,4.1170387,-0.28955,-0.07696899,-0.14782934,0.19107522,0.52305573,0.14076905,0.81858844,"[-7.577842,4.6990285,4.1170387,-0.28955,-0.07696899,-0.14782934,0.19107522,0.52305573,0.14076905,0.81858844]",1
113,1569974880367,-6.672525,4.047583,5.415139,-0.28955,-0.07696899,-0.14782934,0.19107522,0.52305573,0.14076905,0.81858844,"[-6.672525,4.047583,5.415139,-0.28955,-0.07696899,-0.14782934,0.19107522,0.52305573,0.14076905,0.81858844]",1
114,1569974880369,-6.593489,3.7027004,5.989944,-0.28955,-0.07696899,-0.14782934,0.19107522,0.52305573,0.14076905,0.81858844,"[-6.593489,3.7027004,5.989944,-0.28955,-0.07696899,-0.14782934,0.19107522,0.52305573,0.14076905,0.81858844]",1
115,1569974880371,-6.593489,3.7027004,5.989944,-0.28955,-0.07696899,-0.14782934,0.2711491,0.5126868,0.18770318,0.79271555,"[-6.593489,3.7027004,5.989944,-0.28955,-0.07696899,-0.14782934,0.2711491,0.5126868,0.18770318,0.79271555]",1
116,1569974880384,-6.593489,3.7027004,5.989944,-0.28955,-0.07696899,-0.14782934,0.2711491,0.5126868,0.18770318,0.79271555,"[-6.593489,3.7027004,5.989944,-0.28955,-0.07696899,-0.14782934,0.2711491,0.5126868,0.18770318,0.79271555]",1
117,1569974880386,-6.974297,3.532654,6.1791506,-0.28955,-0.07696899,-0.14782934,0.2711491,0.5126868,0.18770318,0.79271555,"[-6.974297,3.532654,6.1791506,-0.28955,-0.07696899,-0.14782934,0.2711491,0.5126868,0.18770318,0.79271555]",1
118,1569974880388,-7.29523,3.3817677,6.13604,-0.28955,-0.07696899,-0.14782934,0.2711491,0.5126868,0.18770318,0.79271555,"[-7.29523,3.3817677,6.13604,-0.28955,-0.07696899,-0.14782934,0.2711491,0.5126868,0.18770318,0.79271555]",1
119,1569974880390,-7.29523,3.3817677,6.13604,-0.28955,-0.07696899,-0.14782934,0.23036888,0.53735673,0.16233541,0.79487425,"[-7.29523,3.3817677,6.13604,-0.28955,-0.07696899,-0.14782934,0.23036888,0.53735673,0.16233541,0.79487425]",1
120,1569974880407,-7.29523,3.3817677,6.13604,-1.0739007,-0.04276055,-0.44104454,0.23036888,0.53735673,0.16233541,0.79487425,"[-7.29523,3.3817677,6.13604,-1.0739007,-0.04276055,-0.44104454,0.23036888,0.53735673,0.16233541,0.79487425]",1
121,1569974880408,-7.3814507,3.0105398,5.961204,-1.0739007,-0.04276055,-0.44104454,0.23036888,0.53735673,0.16233541,0.79487425,"[-7.3814507,3.0105398,5.961204,-1.0739007,-0.04276055,-0.44104454,0.23036888,0.53735673,0.16233541,0.79487425]",1
122,1569974880410,-7.311995,2.6560767,5.728887,-1.0739007,-0.04276055,-0.44104454,0.23036888,0.53735673,0.16233541,0.79487425,"[-7.311995,2.6560767,5.728887,-1.0739007,-0.04276055,-0.44104454,0.23036888,0.53735673,0.16233541,0.79487425]",1
123,1569974880411,-7.311995,2.6560767,5.728887,-1.0739007,-0.04276055,-0.44104454,0.23036888,0.53735673,0.16233541,0.79487425,"[-7.311995,2.6560767,5.728887,-1.0739007,-0.04276055,-0.44104454,0.23036888,0.53735673,0.16233541,0.79487425]",1
124,1569974880413,-7.311995,2.6560767,5.728887,-1.0739007,-0.04276055,-0.44104454,0.10028321,0.45266232,0.2847973,0.8390057,"[-7.311995,2.6560767,5.728887,-1.0739007,-0.04276055,-0.44104454,0.10028321,0.45266232,0.2847973,0.8390057]",1
125,1569974880423,-7.311995,2.6560767,5.728887,-1.0739007,-0.04276055,-0.44104454,0.10028321,0.45266232,0.2847973,0.8390057,"[-7.311995,2.6560767,5.728887,-1.0739007,-0.04276055,-0.44104454,0.10028321,0.45266232,0.2847973,0.8390057]",1
126,1569974880425,-7.434141,2.5171657,5.49657,-1.0739007,-0.04276055,-0.44104454,0.10028321,0.45266232,0.2847973,0.8390057,"[-7.434141,2.5171657,5.49657,-1.0739007,-0.04276055,-0.44104454,0.10028321,0.45266232,0.2847973,0.8390057]",1
127,1569974880427,-7.580237,2.6273365,5.2762284,-1.0739007,-0.04276055,-0.44104454,0.10028321,0.45266232,0.2847973,0.8390057,"[-7.580237,2.6273365,5.2762284,-1.0739007,-0.04276055,-0.44104454,0.10028321,0.45266232,0.2847973,0.8390057]",1
128,1569974880429,-7.580237,2.6273365,5.2762284,-1.0739007,-0.04276055,-0.44104454,0.0335851,0.43454707,0.34360904,0.8318496,"[-7.580237,2.6273365,5.2762284,-1.0739007,-0.04276055,-0.44104454,0.0335851,0.43454707,0.34360904,0.8318496]",1
129,1569974880442,-7.580237,2.6273365,5.2762284,-1.0739007,-0.04276055,-0.44104454,0.0335851,0.43454707,0.34360904,0.8318496,"[-7.580237,2.6273365,5.2762284,-1.0739007,-0.04276055,-0.44104454,0.0335851,0.43454707,0.34360904,0.8318496]",1
130,1569974880444,-7.685618,2.8141482,5.1924024,-1.0739007,-0.04276055,-0.44104454,0.0335851,0.43454707,0.34360904,0.8318496,"[-7.685618,2.8141482,5.1924024,-1.0739007,-0.04276055,-0.44104454,0.0335851,0.43454707,0.34360904,0.8318496]",1
131,1569974880446,-7.692803,2.9650342,5.1971927,-1.0739007,-0.04276055,-0.44104454,0.0335851,0.43454707,0.34360904,0.8318496,"[-7.692803,2.9650342,5.1971927,-1.0739007,-0.04276055,-0.44104454,0.0335851,0.43454707,0.34360904,0.8318496]",1
132,1569974880448,-7.692803,2.9650342,5.1971927,-1.0739007,-0.04276055,-0.44104454,-0.00016770195,0.447847,0.3379707,0.8277734,"[-7.692803,2.9650342,5.1971927,-1.0739007,-0.04276055,-0.44104454,-0.00016770195,0.447847,0.3379707,0.8277734]",1
133,1569974880462,-7.692803,2.9650342,5.1971927,-1.0739007,-0.04276055,-0.44104454,-0.00016770195,0.447847,0.3379707,0.8277734,"[-7.692803,2.9650342,5.1971927,-1.0739007,-0.04276055,-0.44104454,-0.00016770195,0.447847,0.3379707,0.8277734]",1
134,1569974880465,-7.697593,2.8716285,5.261858,-1.0739007,-0.04276055,-0.44104454,-0.00016770195,0.447847,0.3379707,0.8277734,"[-7.697593,2.8716285,5.261858,-1.0739007,-0.04276055,-0.44104454,-0.00016770195,0.447847,0.3379707,0.8277734]",1
135,1569974880467,-7.606582,2.7542725,5.391189,-1.0739007,-0.04276055,-0.44104454,-0.00016770195,0.447847,0.3379707,0.8277734,"[-7.606582,2.7542725,5.391189,-1.0739007,-0.04276055,-0.44104454,-0.00016770195,0.447847,0.3379707,0.8277734]",1
136,1569974880469,-7.606582,2.7542725,5.391189,-1.0739007,-0.04276055,-0.44104454,-0.017094716,0.4614006,0.3153901,0.82906353,"[-7.606582,2.7542725,5.391189,-1.0739007,-0.04276055,-0.44104454,-0.017094716,0.4614006,0.3153901,0.82906353]",1
137,1569974880480,-7.606582,2.7542725,5.391189,-0.77457684,0.09162975,-0.14538588,-0.017094716,0.4614006,0.3153901,0.82906353,"[-7.606582,2.7542725,5.391189,-0.77457684,0.09162975,-0.14538588,-0.017094716,0.4614006,0.3153901,0.82906353]",1
138,1569974880482,-7.606582,2.7542725,5.391189,-0.77457684,0.09162975,-0.14538588,-0.017094716,0.4614006,0.3153901,0.82906353,"[-7.606582,2.7542725,5.391189,-0.77457684,0.09162975,-0.14538588,-0.017094716,0.4614006,0.3153901,0.82906353]",1
139,1569974880484,-7.6664577,2.6129665,5.43909,-0.77457684,0.09162975,-0.14538588,-0.017094716,0.4614006,0.3153901,0.82906353,"[-7.6664577,2.6129665,5.43909,-0.77457684,0.09162975,-0.14538588,-0.017094716,0.4614006,0.3153901,0.82906353]",1
140,1569974880486,-7.8844047,2.565066,5.336104,-0.77457684,0.09162975,-0.14538588,-0.017094716,0.4614006,0.3153901,0.82906353,"[-7.8844047,2.565066,5.336104,-0.77457684,0.09162975,-0.14538588,-0.017094716,0.4614006,0.3153901,0.82906353]",1
141,1569974880487,-7.8844047,2.565066,5.336104,-0.77457684,0.09162975,-0.14538588,0.0055076755,0.48178783,0.2918654,0.8262353,"[-7.8844047,2.565066,5.336104,-0.77457684,0.09162975,-0.14538588,0.0055076755,0.48178783,0.2918654,0.8262353]",1
142,1569974880500,-7.8844047,2.565066,5.336104,-0.77457684,0.09162975,-0.14538588,0.0055076755,0.48178783,0.2918654,0.8262353,"[-7.8844047,2.565066,5.336104,-0.77457684,0.09162975,-0.14538588,0.0055076755,0.48178783,0.2918654,0.8262353]",1
143,1569974880502,-8.059241,2.572251,5.2666483,-0.77457684,0.09162975,-0.14538588,0.0055076755,0.48178783,0.2918654,0.8262353,"[-8.059241,2.572251,5.2666483,-0.77457684,0.09162975,-0.14538588,0.0055076755,0.48178783,0.2918654,0.8262353]",1
144,1569974880504,-8.102351,2.579436,5.2091675,-0.77457684,0.09162975,-0.14538588,0.0055076755,0.48178783,0.2918654,0.8262353,"[-8.102351,2.579436,5.2091675,-0.77457684,0.09162975,-0.14538588,0.0055076755,0.48178783,0.2918654,0.8262353]",1
145,1569974880506,-8.102351,2.579436,5.2091675,-0.77457684,0.09162975,-0.14538588,0.007768312,0.47987115,0.29329565,0.82682586,"[-8.102351,2.579436,5.2091675,-0.77457684,0.09162975,-0.14538588,0.007768312,0.47987115,0.29329565,0.82682586]",1
146,1569974880524,-8.102351,2.579436,5.2091675,-0.77457684,0.09162975,-0.14538588,0.007768312,0.47987115,0.29329565,0.82682586,"[-8.102351,2.579436,5.2091675,-0.77457684,0.09162975,-0.14538588,0.007768312,0.47987115,0.29329565,0.82682586]",1
147,1569974880526,-8.064031,2.7231374,5.137317,-0.77457684,0.09162975,-0.14538588,0.007768312,0.47987115,0.29329565,0.82682586,"[-8.064031,2.7231374,5.137317,-0.77457684,0.09162975,-0.14538588,0.007768312,0.47987115,0.29329565,0.82682586]",1
148,1569974880527,-8.054451,2.8859987,5.0678616,-0.77457684,0.09162975,-0.14538588,0.007768312,0.47987115,0.29329565,0.82682586,"[-8.054451,2.8859987,5.0678616,-0.77457684,0.09162975,-0.14538588,0.007768312,0.47987115,0.29329565,0.82682586]",1
149,1569974880529,-8.054451,2.8859987,5.0678616,-0.77457684,0.09162975,-0.14538588,-0.01020205,0.47026488,0.30274007,0.8289121,"[-8.054451,2.8859987,5.0678616,-0.77457684,0.09162975,-0.14538588,-0.01020205,0.47026488,0.30274007,0.8289121]",1
150,1569974880539,-8.054451,2.8859987,5.0678616,-0.77457684,0.09162975,-0.14538588,-0.01020205,0.47026488,0.30274007,0.8289121,"[-8.054451,2.8859987,5.0678616,-0.77457684,0.09162975,-0.14538588,-0.01020205,0.47026488,0.30274007,0.8289121]",1
151,1569974880541,-8.080796,2.9770093,5.1061816,-0.77457684,0.09162975,-0.14538588,-0.01020205,0.47026488,0.30274007,0.8289121,"[-8.080796,2.9770093,5.1061816,-0.77457684,0.09162975,-0.14538588,-0.01020205,0.47026488,0.30274007,0.8289121]",1
152,1569974880543,-8.1071415,2.9027638,5.094207,-0.77457684,0.09162975,-0.14538588,-0.01020205,0.47026488,0.30274007,0.8289121,"[-8.1071415,2.9027638,5.094207,-0.77457684,0.09162975,-0.14538588,-0.01020205,0.47026488,0.30274007,0.8289121]",1
153,1569974880545,-8.1071415,2.9027638,5.094207,-0.77457684,0.09162975,-0.14538588,-0.012138815,0.48538736,0.2865489,0.82591856,"[-8.1071415,2.9027638,5.094207,-0.77457684,0.09162975,-0.14538588,-0.012138815,0.48538736,0.2865489,0.82591856]",1
154,1569974880557,-8.1071415,2.9027638,5.094207,-0.7696899,0.19792026,-0.15393798,-0.012138815,0.48538736,0.2865489,0.82591856,"[-8.1071415,2.9027638,5.094207,-0.7696899,0.19792026,-0.15393798,-0.012138815,0.48538736,0.2865489,0.82591856]",1
155,1569974880559,-8.1071415,2.9027638,5.094207,-0.7696899,0.19792026,-0.15393798,-0.012138815,0.48538736,0.2865489,0.82591856,"[-8.1071415,2.9027638,5.094207,-0.7696899,0.19792026,-0.15393798,-0.012138815,0.48538736,0.2865489,0.82591856]",1
156,1569974880561,-8.080796,2.8907888,5.0894165,-0.7696899,0.19792026,-0.15393798,-0.012138815,0.48538736,0.2865489,0.82591856,"[-8.080796,2.8907888,5.0894165,-0.7696899,0.19792026,-0.15393798,-0.012138815,0.48538736,0.2865489,0.82591856]",1
157,1569974880563,-8.119117,2.9051588,4.9481106,-0.7696899,0.19792026,-0.15393798,-0.012138815,0.48538736,0.2865489,0.82591856,"[-8.119117,2.9051588,4.9481106,-0.7696899,0.19792026,-0.15393798,-0.012138815,0.48538736,0.2865489,0.82591856]",1
158,1569974880565,-8.119117,2.9051588,4.9481106,-0.7696899,0.19792026,-0.15393798,-0.0015030747,0.4915525,0.28113997,0.8242173,"[-8.119117,2.9051588,4.9481106,-0.7696899,0.19792026,-0.15393798,-0.0015030747,0.4915525,0.28113997,0.8242173]",1
159,1569974880577,-8.119117,2.9051588,4.9481106,-0.7696899,0.19792026,-0.15393798,-0.0015030747,0.4915525,0.28113997,0.8242173,"[-8.119117,2.9051588,4.9481106,-0.7696899,0.19792026,-0.15393798,-0.0015030747,0.4915525,0.28113997,0.8242173]",1
160,1569974880579,-8.231683,2.929109,4.754114,-0.7696899,0.19792026,-0.15393798,-0.0015030747,0.4915525,0.28113997,0.8242173,"[-8.231683,2.929109,4.754114,-0.7696899,0.19792026,-0.15393798,-0.0015030747,0.4915525,0.28113997,0.8242173]",1
161,1569974880581,-8.291558,2.7854078,4.7469287,-0.7696899,0.19792026,-0.15393798,-0.0015030747,0.4915525,0.28113997,0.8242173,"[-8.291558,2.7854078,4.7469287,-0.7696899,0.19792026,-0.15393798,-0.0015030747,0.4915525,0.28113997,0.8242173]",1
162,1569974880583,-8.291558,2.7854078,4.7469287,-0.7696899,0.19792026,-0.15393798,0.013540827,0.4947797,0.2779588,0.8232549,"[-8.291558,2.7854078,4.7469287,-0.7696899,0.19792026,-0.15393798,0.013540827,0.4947797,0.2779588,0.8232549]",1
163,1569974880598,-8.135881,2.687212,4.799619,-0.7696899,0.19792026,-0.15393798,0.013540827,0.4947797,0.2779588,0.8232549,"[-8.135881,2.687212,4.799619,-0.7696899,0.19792026,-0.15393798,0.013540827,0.4947797,0.2779588,0.8232549]",1
164,1569974880600,-8.064031,2.4668703,4.90979,-0.7696899,0.19792026,-0.15393798,0.013540827,0.4947797,0.2779588,0.8232549,"[-8.064031,2.4668703,4.90979,-0.7696899,0.19792026,-0.15393798,0.013540827,0.4947797,0.2779588,0.8232549]",1
165,1569974880601,-8.064031,2.4668703,4.90979,-0.7696899,0.19792026,-0.15393798,0.013540827,0.4947797,0.2779588,0.8232549,"[-8.064031,2.4668703,4.90979,-0.7696899,0.19792026,-0.15393798,0.013540827,0.4947797,0.2779588,0.8232549]",1
166,1569974880603,-8.064031,2.4668703,4.90979,-0.7696899,0.19792026,-0.15393798,0.011535068,0.49480495,0.27353466,0.8247508,"[-8.064031,2.4668703,4.90979,-0.7696899,0.19792026,-0.15393798,0.011535068,0.49480495,0.27353466,0.8247508]",1
167,1569974880616,-8.064031,2.4668703,4.90979,-0.7696899,0.19792026,-0.15393798,0.011535068,0.49480495,0.27353466,0.8247508,"[-8.064031,2.4668703,4.90979,-0.7696899,0.19792026,-0.15393798,0.011535068,0.49480495,0.27353466,0.8247508]",1
168,1569974880618,-8.073611,2.2776637,5.007986,-0.7696899,0.19792026,-0.15393798,0.011535068,0.49480495,0.27353466,0.8247508,"[-8.073611,2.2776637,5.007986,-0.7696899,0.19792026,-0.15393798,0.011535068,0.49480495,0.27353466,0.8247508]",1
169,1569974880619,-8.176597,2.2752686,4.8571,-0.7696899,0.19792026,-0.15393798,0.011535068,0.49480495,0.27353466,0.8247508,"[-8.176597,2.2752686,4.8571,-0.7696899,0.19792026,-0.15393798,0.011535068,0.49480495,0.27353466,0.8247508]",1
170,1569974880621,-8.176597,2.2752686,4.8571,-0.7696899,0.19792026,-0.15393798,0.02290934,0.51039374,0.2515804,0.821998,"[-8.176597,2.2752686,4.8571,-0.7696899,0.19792026,-0.15393798,0.02290934,0.51039374,0.2515804,0.821998]",1
171,1569974880634,-8.176597,2.2752686,4.8571,-0.87353694,0.11484262,-0.22724178,0.02290934,0.51039374,0.2515804,0.821998,"[-8.176597,2.2752686,4.8571,-0.87353694,0.11484262,-0.22724178,0.02290934,0.51039374,0.2515804,0.821998]",1
172,1569974880637,-8.176597,2.2752686,4.8571,-0.87353694,0.11484262,-0.22724178,0.02290934,0.51039374,0.2515804,0.821998,"[-8.176597,2.2752686,4.8571,-0.87353694,0.11484262,-0.22724178,0.02290934,0.51039374,0.2515804,0.821998]",1
173,1569974880638,-8.143066,2.339934,5.0774417,-0.87353694,0.11484262,-0.22724178,0.02290934,0.51039374,0.2515804,0.821998,"[-8.143066,2.339934,5.0774417,-0.87353694,0.11484262,-0.22724178,0.02290934,0.51039374,0.2515804,0.821998]",1
174,1569974880640,-8.047266,2.1363575,5.345684,-0.87353694,0.11484262,-0.22724178,0.02290934,0.51039374,0.2515804,0.821998,"[-8.047266,2.1363575,5.345684,-0.87353694,0.11484262,-0.22724178,0.02290934,0.51039374,0.2515804,0.821998]",1
175,1569974880642,-8.047266,2.1363575,5.345684,-0.87353694,0.11484262,-0.22724178,0.010516446,0.5055016,0.25348717,0.82468283,"[-8.047266,2.1363575,5.345684,-0.87353694,0.11484262,-0.22724178,0.010516446,0.5055016,0.25348717,0.82468283]",1
176,1569974880654,-8.047266,2.1363575,5.345684,-0.87353694,0.11484262,-0.22724178,0.010516446,0.5055016,0.25348717,0.82468283,"[-8.047266,2.1363575,5.345684,-0.87353694,0.11484262,-0.22724178,0.010516446,0.5055016,0.25348717,0.82468283]",1
177,1569974880656,-7.9634404,1.8034497,5.494175,-0.87353694,0.11484262,-0.22724178,0.010516446,0.5055016,0.25348717,0.82468283,"[-7.9634404,1.8034497,5.494175,-0.87353694,0.11484262,-0.22724178,0.010516446,0.5055016,0.25348717,0.82468283]",1
178,1569974880658,-7.8484793,1.6621436,5.52052,-0.87353694,0.11484262,-0.22724178,0.010516446,0.5055016,0.25348717,0.82468283,"[-7.8484793,1.6621436,5.52052,-0.87353694,0.11484262,-0.22724178,0.010516446,0.5055016,0.25348717,0.82468283]",1
179,1569974880660,-7.8484793,1.6621436,5.52052,-0.87353694,0.11484262,-0.22724178,-0.017423538,0.49335548,0.26551712,0.8281289,"[-7.8484793,1.6621436,5.52052,-0.87353694,0.11484262,-0.22724178,-0.017423538,0.49335548,0.26551712,0.8281289]",1
180,1569974880673,-7.8484793,1.6621436,5.52052,-0.87353694,0.11484262,-0.22724178,-0.017423538,0.49335548,0.26551712,0.8281289,"[-7.8484793,1.6621436,5.52052,-0.87353694,0.11484262,-0.22724178,-0.017423538,0.49335548,0.26551712,0.8281289]",1
181,1569974880675,-7.94907,1.6046631,5.3001785,-0.87353694,0.11484262,-0.22724178,-0.017423538,0.49335548,0.26551712,0.8281289,"[-7.94907,1.6046631,5.3001785,-0.87353694,0.11484262,-0.22724178,-0.017423538,0.49335548,0.26551712,0.8281289]",1
182,1569974880677,-8.049661,1.6813037,5.046306,-0.87353694,0.11484262,-0.22724178,-0.017423538,0.49335548,0.26551712,0.8281289,"[-8.049661,1.6813037,5.046306,-0.87353694,0.11484262,-0.22724178,-0.017423538,0.49335548,0.26551712,0.8281289]",1
183,1569974880679,-8.049661,1.6813037,5.046306,-0.87353694,0.11484262,-0.22724178,-0.017382225,0.49262315,0.26963153,0.8272358,"[-8.049661,1.6813037,5.046306,-0.87353694,0.11484262,-0.22724178,-0.017382225,0.49262315,0.26963153,0.8272358]",1
184,1569974880692,-8.049661,1.6813037,5.046306,-0.87353694,0.11484262,-0.22724178,-0.017382225,0.49262315,0.26963153,0.8272358,"[-8.049661,1.6813037,5.046306,-0.87353694,0.11484262,-0.22724178,-0.017382225,0.49262315,0.26963153,0.8272358]",1
185,1569974880694,-8.116721,1.9782863,4.8163843,-0.87353694,0.11484262,-0.22724178,-0.017382225,0.49262315,0.26963153,0.8272358,"[-8.116721,1.9782863,4.8163843,-0.87353694,0.11484262,-0.22724178,-0.017382225,0.49262315,0.26963153,0.8272358]",1
186,1569974880696,-8.071217,2.1746778,4.7469287,-0.87353694,0.11484262,-0.22724178,-0.017382225,0.49262315,0.26963153,0.8272358,"[-8.071217,2.1746778,4.7469287,-0.87353694,0.11484262,-0.22724178,-0.017382225,0.49262315,0.26963153,0.8272358]",1
187,1569974880698,-8.071217,2.1746778,4.7469287,-0.87353694,0.11484262,-0.22724178,-0.056837223,0.4665148,0.29764536,0.8309878,"[-8.071217,2.1746778,4.7469287,-0.87353694,0.11484262,-0.22724178,-0.056837223,0.4665148,0.29764536,0.8309878]",1
188,1569974880713,-8.071217,2.1746778,4.7469287,0.24190255,0.010995571,-0.16982047,-0.056837223,0.4665148,0.29764536,0.8309878,"[-8.071217,2.1746778,4.7469287,0.24190255,0.010995571,-0.16982047,-0.056837223,0.4665148,0.29764536,0.8309878]",1
189,1569974880715,-7.8556643,2.191443,4.521797,0.24190255,0.010995571,-0.16982047,-0.056837223,0.4665148,0.29764536,0.8309878,"[-7.8556643,2.191443,4.521797,0.24190255,0.010995571,-0.16982047,-0.056837223,0.4665148,0.29764536,0.8309878]",1
190,1569974880717,-7.8197393,2.1195924,4.91937,0.24190255,0.010995571,-0.16982047,-0.056837223,0.4665148,0.29764536,0.8309878,"[-7.8197393,2.1195924,4.91937,0.24190255,0.010995571,-0.16982047,-0.056837223,0.4665148,0.29764536,0.8309878]",1
191,1569974880718,-7.8197393,2.1195924,4.91937,0.24190255,0.010995571,-0.16982047,-0.056837223,0.4665148,0.29764536,0.8309878,"[-7.8197393,2.1195924,4.91937,0.24190255,0.010995571,-0.16982047,-0.056837223,0.4665148,0.29764536,0.8309878]",1
192,1569974880721,-7.8197393,2.1195924,4.91937,0.24190255,0.010995571,-0.16982047,-0.06293525,0.47169018,0.28652528,0.8315352,"[-7.8197393,2.1195924,4.91937,0.24190255,0.010995571,-0.16982047,-0.06293525,0.47169018,0.28652528,0.8315352]",1
193,1569974880732,-7.8197393,2.1195924,4.91937,0.24190255,0.010995571,-0.16982047,-0.06293525,0.47169018,0.28652528,0.8315352,"[-7.8197393,2.1195924,4.91937,0.24190255,0.010995571,-0.16982047,-0.06293525,0.47169018,0.28652528,0.8315352]",1
194,1569974880734,-7.9562554,2.1267774,4.773274,0.24190255,0.010995571,-0.16982047,-0.06293525,0.47169018,0.28652528,0.8315352,"[-7.9562554,2.1267774,4.773274,0.24190255,0.010995571,-0.16982047,-0.06293525,0.47169018,0.28652528,0.8315352]",1
195,1569974880736,-8.176597,1.8944606,4.5960426,0.24190255,0.010995571,-0.16982047,-0.06293525,0.47169018,0.28652528,0.8315352,"[-8.176597,1.8944606,4.5960426,0.24190255,0.010995571,-0.16982047,-0.06293525,0.47169018,0.28652528,0.8315352]",1
196,1569974880737,-8.176597,1.8944606,4.5960426,0.24190255,0.010995571,-0.16982047,-0.027354809,0.49952325,0.250728,0.82877237,"[-8.176597,1.8944606,4.5960426,0.24190255,0.010995571,-0.16982047,-0.027354809,0.49952325,0.250728,0.82877237]",1
197,1569974880751,-8.176597,1.8944606,4.5960426,0.24190255,0.010995571,-0.16982047,-0.027354809,0.49952325,0.250728,0.82877237,"[-8.176597,1.8944606,4.5960426,0.24190255,0.010995571,-0.16982047,-0.027354809,0.49952325,0.250728,0.82877237]",1
198,1569974880753,-8.384964,1.6741188,4.790039,0.24190255,0.010995571,-0.16982047,-0.027354809,0.49952325,0.250728,0.82877237,"[-8.384964,1.6741188,4.790039,0.24190255,0.010995571,-0.16982047,-0.027354809,0.49952325,0.250728,0.82877237]",1
199,1569974880754,-8.267608,1.698069,4.960086,0.24190255,0.010995571,-0.16982047,-0.027354809,0.49952325,0.250728,0.82877237,"[-8.267608,1.698069,4.960086,0.24190255,0.010995571,-0.16982047,-0.027354809,0.49952325,0.250728,0.82877237]",1
200,1569974880756,-8.267608,1.698069,4.960086,0.24190255,0.010995571,-0.16982047,-0.0055758087,0.5074644,0.24063481,0.82737154,"[-8.267608,1.698069,4.960086,0.24190255,0.010995571,-0.16982047,-0.0055758087,0.5074644,0.24063481,0.82737154]",1
201,1569974880770,-8.267608,1.698069,4.960086,0.24190255,0.010995571,-0.16982047,-0.0055758087,0.5074644,0.24063481,0.82737154,"[-8.267608,1.698069,4.960086,0.24190255,0.010995571,-0.16982047,-0.0055758087,0.5074644,0.24063481,0.82737154]",1
202,1569974880772,-8.059241,1.8968556,4.9864306,0.24190255,0.010995571,-0.16982047,-0.0055758087,0.5074644,0.24063481,0.82737154,"[-8.059241,1.8968556,4.9864306,0.24190255,0.010995571,-0.16982047,-0.0055758087,0.5074644,0.24063481,0.82737154]",1
203,1569974880773,-7.9802055,2.1028273,4.996011,0.24190255,0.010995571,-0.16982047,-0.0055758087,0.5074644,0.24063481,0.82737154,"[-7.9802055,2.1028273,4.996011,0.24190255,0.010995571,-0.16982047,-0.0055758087,0.5074644,0.24063481,0.82737154]",1
204,1569974880775,-7.9802055,2.1028273,4.996011,0.24190255,0.010995571,-0.16982047,-0.014068567,0.49907488,0.24724999,0.8304179,"[-7.9802055,2.1028273,4.996011,0.24190255,0.010995571,-0.16982047,-0.014068567,0.49907488,0.24724999,0.8304179]",1
205,1569974880788,-7.9802055,2.1028273,4.996011,0.0488692,-0.06597342,-0.21868968,-0.014068567,0.49907488,0.24724999,0.8304179,"[-7.9802055,2.1028273,4.996011,0.0488692,-0.06597342,-0.21868968,-0.014068567,0.49907488,0.24724999,0.8304179]",1
206,1569974880790,-8.020921,1.9854712,4.88105,0.0488692,-0.06597342,-0.21868968,-0.014068567,0.49907488,0.24724999,0.8304179,"[-8.020921,1.9854712,4.88105,0.0488692,-0.06597342,-0.21868968,-0.014068567,0.49907488,0.24724999,0.8304179]",1
207,1569974880791,-8.087981,1.8106349,4.749324,0.0488692,-0.06597342,-0.21868968,-0.014068567,0.49907488,0.24724999,0.8304179,"[-8.087981,1.8106349,4.749324,0.0488692,-0.06597342,-0.21868968,-0.014068567,0.49907488,0.24724999,0.8304179]",1
208,1569974880795,-8.087981,1.8106349,4.749324,0.0488692,-0.06597342,-0.21868968,-0.014068567,0.49907488,0.24724999,0.8304179,"[-8.087981,1.8106349,4.749324,0.0488692,-0.06597342,-0.21868968,-0.014068567,0.49907488,0.24724999,0.8304179]",1
209,1569974880797,-8.087981,1.8106349,4.749324,0.0488692,-0.06597342,-0.21868968,-0.038183223,0.50415385,0.2323378,0.83089715,"[-8.087981,1.8106349,4.749324,0.0488692,-0.06597342,-0.21868968,-0.038183223,0.50415385,0.2323378,0.83089715]",1
210,1569974880808,-8.087981,1.8106349,4.749324,0.0488692,-0.06597342,-0.21868968,-0.038183223,0.50415385,0.2323378,0.83089715,"[-8.087981,1.8106349,4.749324,0.0488692,-0.06597342,-0.21868968,-0.038183223,0.50415385,0.2323378,0.83089715]",1
211,1569974880810,-8.248447,1.5639478,5.094207,0.0488692,-0.06597342,-0.21868968,-0.038183223,0.50415385,0.2323378,0.83089715,"[-8.248447,1.5639478,5.094207,0.0488692,-0.06597342,-0.21868968,-0.038183223,0.50415385,0.2323378,0.83089715]",1
212,1569974880812,-8.229287,1.3388159,5.374424,0.0488692,-0.06597342,-0.21868968,-0.038183223,0.50415385,0.2323378,0.83089715,"[-8.229287,1.3388159,5.374424,0.0488692,-0.06597342,-0.21868968,-0.038183223,0.50415385,0.2323378,0.83089715]",1
213,1569974880814,-8.229287,1.3388159,5.374424,0.0488692,-0.06597342,-0.21868968,-0.028174244,0.49116725,0.24766433,0.8346396,"[-8.229287,1.3388159,5.374424,0.0488692,-0.06597342,-0.21868968,-0.028174244,0.49116725,0.24766433,0.8346396]",1
214,1569974880827,-8.229287,1.3388159,5.374424,0.0488692,-0.06597342,-0.21868968,-0.028174244,0.49116725,0.24766433,0.8346396,"[-8.229287,1.3388159,5.374424,0.0488692,-0.06597342,-0.21868968,-0.028174244,0.49116725,0.24766433,0.8346396]",1
215,1569974880829,-8.085587,1.1520045,5.6187162,0.0488692,-0.06597342,-0.21868968,-0.028174244,0.49116725,0.24766433,0.8346396,"[-8.085587,1.1520045,5.6187162,0.0488692,-0.06597342,-0.21868968,-0.028174244,0.49116725,0.24766433,0.8346396]",1
216,1569974880831,-7.89638,1.1112891,5.592371,0.0488692,-0.06597342,-0.21868968,-0.028174244,0.49116725,0.24766433,0.8346396,"[-7.89638,1.1112891,5.592371,0.0488692,-0.06597342,-0.21868968,-0.028174244,0.49116725,0.24766433,0.8346396]",1
217,1569974880833,-7.89638,1.1112891,5.592371,0.0488692,-0.06597342,-0.21868968,-0.017428324,0.4953733,0.23820159,0.8352015,"[-7.89638,1.1112891,5.592371,0.0488692,-0.06597342,-0.21868968,-0.017428324,0.4953733,0.23820159,0.8352015]",1
218,1569974880847,-7.89638,1.1112891,5.592371,0.0488692,-0.06597342,-0.21868968,-0.017428324,0.4953733,0.23820159,0.8352015,"[-7.89638,1.1112891,5.592371,0.0488692,-0.06597342,-0.21868968,-0.017428324,0.4953733,0.23820159,0.8352015]",1
219,1569974880849,-7.937095,1.1759547,5.333709,0.0488692,-0.06597342,-0.21868968,-0.017428324,0.4953733,0.23820159,0.8352015,"[-7.937095,1.1759547,5.333709,0.0488692,-0.06597342,-0.21868968,-0.017428324,0.4953733,0.23820159,0.8352015]",1
220,1569974880850,-8.1143265,1.3603711,4.749324,0.0488692,-0.06597342,-0.21868968,-0.017428324,0.4953733,0.23820159,0.8352015,"[-8.1143265,1.3603711,4.749324,0.0488692,-0.06597342,-0.21868968,-0.017428324,0.4953733,0.23820159,0.8352015]",1
221,1569974880852,-8.1143265,1.3603711,4.749324,0.0488692,-0.06597342,-0.21868968,-0.042447865,0.48869303,0.23581292,0.83890975,"[-8.1143265,1.3603711,4.749324,0.0488692,-0.06597342,-0.21868968,-0.042447865,0.48869303,0.23581292,0.83890975]",1
222,1569974880864,-8.1143265,1.3603711,4.749324,0.2736675,-0.0036651902,-0.13561203,-0.042447865,0.48869303,0.23581292,0.83890975,"[-8.1143265,1.3603711,4.749324,0.2736675,-0.0036651902,-0.13561203,-0.042447865,0.48869303,0.23581292,0.83890975]",1
223,1569974880867,-8.1143265,1.3603711,4.749324,0.2736675,-0.0036651902,-0.13561203,-0.042447865,0.48869303,0.23581292,0.83890975,"[-8.1143265,1.3603711,4.749324,0.2736675,-0.0036651902,-0.13561203,-0.042447865,0.48869303,0.23581292,0.83890975]",1
224,1569974880869,-8.401729,1.5447876,4.6750784,0.2736675,-0.0036651902,-0.13561203,-0.042447865,0.48869303,0.23581292,0.83890975,"[-8.401729,1.5447876,4.6750784,0.2736675,-0.0036651902,-0.13561203,-0.042447865,0.48869303,0.23581292,0.83890975]",1
225,1569974880871,-8.420889,1.6357985,4.5720925,0.2736675,-0.0036651902,-0.13561203,-0.042447865,0.48869303,0.23581292,0.83890975,"[-8.420889,1.6357985,4.5720925,0.2736675,-0.0036651902,-0.13561203,-0.042447865,0.48869303,0.23581292,0.83890975]",1
226,1569974880873,-8.420889,1.6357985,4.5720925,0.2736675,-0.0036651902,-0.13561203,-0.07387158,0.45951125,0.26234215,0.84532183,"[-8.420889,1.6357985,4.5720925,0.2736675,-0.0036651902,-0.13561203,-0.07387158,0.45951125,0.26234215,0.84532183]",1
227,1569974880885,-8.420889,1.6357985,4.5720925,0.2736675,-0.0036651902,-0.13561203,-0.07387158,0.45951125,0.26234215,0.84532183,"[-8.420889,1.6357985,4.5720925,0.2736675,-0.0036651902,-0.13561203,-0.07387158,0.45951125,0.26234215,0.84532183]",1
228,1569974880887,-8.286768,1.7555494,4.7157936,0.2736675,-0.0036651902,-0.13561203,-0.07387158,0.45951125,0.26234215,0.84532183,"[-8.286768,1.7555494,4.7157936,0.2736675,-0.0036651902,-0.13561203,-0.07387158,0.45951125,0.26234215,0.84532183]",1
229,1569974880889,-8.286768,1.8729054,4.8379397,0.2736675,-0.0036651902,-0.13561203,-0.07387158,0.45951125,0.26234215,0.84532183,"[-8.286768,1.8729054,4.8379397,0.2736675,-0.0036651902,-0.13561203,-0.07387158,0.45951125,0.26234215,0.84532183]",1
230,1569974880890,-8.286768,1.8729054,4.8379397,0.2736675,-0.0036651902,-0.13561203,-0.06500992,0.4679518,0.24791093,0.84577477,"[-8.286768,1.8729054,4.8379397,0.2736675,-0.0036651902,-0.13561203,-0.06500992,0.4679518,0.24791093,0.84577477]",1
231,1569974880907,-8.193362,1.9399658,4.87147,0.2736675,-0.0036651902,-0.13561203,-0.06500992,0.4679518,0.24791093,0.84577477,"[-8.193362,1.9399658,4.87147,0.2736675,-0.0036651902,-0.13561203,-0.06500992,0.4679518,0.24791093,0.84577477]",1
232,1569974880909,-8.059241,1.8753004,5.1900077,0.2736675,-0.0036651902,-0.13561203,-0.06500992,0.4679518,0.24791093,0.84577477,"[-8.059241,1.8753004,5.1900077,0.2736675,-0.0036651902,-0.13561203,-0.06500992,0.4679518,0.24791093,0.84577477]",1
233,1569974880911,-8.059241,1.8753004,5.1900077,0.2736675,-0.0036651902,-0.13561203,-0.06500992,0.4679518,0.24791093,0.84577477,"[-8.059241,1.8753004,5.1900077,0.2736675,-0.0036651902,-0.13561203,-0.06500992,0.4679518,0.24791093,0.84577477]",1
234,1569974880914,-8.059241,1.8753004,5.1900077,0.2736675,-0.0036651902,-0.13561203,-0.024290394,0.5092847,0.19569463,0.83770084,"[-8.059241,1.8753004,5.1900077,0.2736675,-0.0036651902,-0.13561203,-0.024290394,0.5092847,0.19569463,0.83770084]",1
235,1569974880927,-8.059241,1.8753004,5.1900077,0.2736675,-0.0036651902,-0.13561203,-0.024290394,0.5092847,0.19569463,0.83770084,"[-8.059241,1.8753004,5.1900077,0.2736675,-0.0036651902,-0.13561203,-0.024290394,0.5092847,0.19569463,0.83770084]",1
236,1569974881020,-7.9083548,1.9303858,5.216353,0.2736675,-0.0036651902,-0.13561203,-0.024290394,0.5092847,0.19569463,0.83770084,"[-7.9083548,1.9303858,5.216353,0.2736675,-0.0036651902,-0.13561203,-0.024290394,0.5092847,0.19569463,0.83770084]",1
237,1569974881020,-8.0017605,1.7531544,5.024751,0.2736675,-0.0036651902,-0.13561203,-0.024290394,0.5092847,0.19569463,0.83770084,"[-8.0017605,1.7531544,5.024751,0.2736675,-0.0036651902,-0.13561203,-0.024290394,0.5092847,0.19569463,0.83770084]",1
238,1569974881021,-8.0017605,1.7531544,5.024751,0.2736675,-0.0036651902,-0.13561203,-0.01375591,0.50655794,0.20149769,0.8382175,"[-8.0017605,1.7531544,5.024751,0.2736675,-0.0036651902,-0.13561203,-0.01375591,0.50655794,0.20149769,0.8382175]",1
239,1569974881021,-8.0017605,1.7531544,5.024751,-0.6181954,0.05009093,0.00855211,-0.01375591,0.50655794,0.20149769,0.8382175,"[-8.0017605,1.7531544,5.024751,-0.6181954,0.05009093,0.00855211,-0.01375591,0.50655794,0.20149769,0.8382175]",1
240,1569974881021,-8.0017605,1.7531544,5.024751,-0.6181954,0.05009093,0.00855211,-0.01375591,0.50655794,0.20149769,0.8382175,"[-8.0017605,1.7531544,5.024751,-0.6181954,0.05009093,0.00855211,-0.01375591,0.50655794,0.20149769,0.8382175]",1
241,1569974881021,-8.193362,1.5136524,5.0031962,-0.6181954,0.05009093,0.00855211,-0.01375591,0.50655794,0.20149769,0.8382175,"[-8.193362,1.5136524,5.0031962,-0.6181954,0.05009093,0.00855211,-0.01375591,0.50655794,0.20149769,0.8382175]",1
242,1569974881022,-8.293953,1.4418018,4.9552956,-0.6181954,0.05009093,0.00855211,-0.01375591,0.50655794,0.20149769,0.8382175,"[-8.293953,1.4418018,4.9552956,-0.6181954,0.05009093,0.00855211,-0.01375591,0.50655794,0.20149769,0.8382175]",1
243,1569974881022,-8.293953,1.4418018,4.9552956,-0.6181954,0.05009093,0.00855211,-0.008072837,0.49953997,0.21318166,0.83961195,"[-8.293953,1.4418018,4.9552956,-0.6181954,0.05009093,0.00855211,-0.008072837,0.49953997,0.21318166,0.83961195]",1
244,1569974881022,-8.293953,1.4418018,4.9552956,-0.6181954,0.05009093,0.00855211,-0.008072837,0.49953997,0.21318166,0.83961195,"[-8.293953,1.4418018,4.9552956,-0.6181954,0.05009093,0.00855211,-0.008072837,0.49953997,0.21318166,0.83961195]",1
245,1569974881023,-8.320298,1.5639478,4.9529004,-0.6181954,0.05009093,0.00855211,-0.008072837,0.49953997,0.21318166,0.83961195,"[-8.320298,1.5639478,4.9529004,-0.6181954,0.05009093,0.00855211,-0.008072837,0.49953997,0.21318166,0.83961195]",1
246,1569974881023,-8.296348,1.6789087,5.0510964,-0.6181954,0.05009093,0.00855211,-0.008072837,0.49953997,0.21318166,0.83961195,"[-8.296348,1.6789087,5.0510964,-0.6181954,0.05009093,0.00855211,-0.008072837,0.49953997,0.21318166,0.83961195]",1
247,1569974881023,-8.296348,1.6789087,5.0510964,-0.6181954,0.05009093,0.00855211,-0.018335545,0.479481,0.24046844,0.8437634,"[-8.296348,1.6789087,5.0510964,-0.6181954,0.05009093,0.00855211,-0.018335545,0.479481,0.24046844,0.8437634]",1
248,1569974881023,-8.296348,1.6789087,5.0510964,-0.6181954,0.05009093,0.00855211,-0.018335545,0.479481,0.24046844,0.8437634,"[-8.296348,1.6789087,5.0510964,-0.6181954,0.05009093,0.00855211,-0.018335545,0.479481,0.24046844,0.8437634]",1
249,1569974881024,-8.169412,1.7339942,5.2355127,-0.6181954,0.05009093,0.00855211,-0.018335545,0.479481,0.24046844,0.8437634,"[-8.169412,1.7339942,5.2355127,-0.6181954,0.05009093,0.00855211,-0.018335545,0.479481,0.24046844,0.8437634]",1
250,1569974881024,-7.9538603,1.5687379,5.47741,-0.6181954,0.05009093,0.00855211,-0.018335545,0.479481,0.24046844,0.8437634,"[-7.9538603,1.5687379,5.47741,-0.6181954,0.05009093,0.00855211,-0.018335545,0.479481,0.24046844,0.8437634]",1
251,1569974881024,-7.9538603,1.5687379,5.47741,-0.6181954,0.05009093,0.00855211,-0.039179638,0.49098477,0.22567676,0.84051704,"[-7.9538603,1.5687379,5.47741,-0.6181954,0.05009093,0.00855211,-0.039179638,0.49098477,0.22567676,0.84051704]",1
252,1569974881024,-7.9538603,1.5687379,5.47741,-0.6181954,0.05009093,0.00855211,-0.039179638,0.49098477,0.22567676,0.84051704,"[-7.9538603,1.5687379,5.47741,-0.6181954,0.05009093,0.00855211,-0.039179638,0.49098477,0.22567676,0.84051704]",1
253,1569974881025,-7.9610453,1.2885206,5.654641,-0.6181954,0.05009093,0.00855211,-0.039179638,0.49098477,0.22567676,0.84051704,"[-7.9610453,1.2885206,5.654641,-0.6181954,0.05009093,0.00855211,-0.039179638,0.49098477,0.22567676,0.84051704]",1
254,1569974881025,-7.9394903,0.90771246,5.9372535,-0.6181954,0.05009093,0.00855211,-0.039179638,0.49098477,0.22567676,0.84051704,"[-7.9394903,0.90771246,5.9372535,-0.6181954,0.05009093,0.00855211,-0.039179638,0.49098477,0.22567676,0.84051704]",1
255,1569974881025,-7.9394903,0.90771246,5.9372535,-0.6181954,0.05009093,0.00855211,-0.03995083,0.4959043,0.22818941,0.8369065,"[-7.9394903,0.90771246,5.9372535,-0.6181954,0.05009093,0.00855211,-0.03995083,0.4959043,0.22818941,0.8369065]",1
256,1569974881026,-7.9394903,0.90771246,5.9372535,-1.402546,0.2076941,0.0122173,-0.03995083,0.4959043,0.22818941,0.8369065,"[-7.9394903,0.90771246,5.9372535,-1.402546,0.2076941,0.0122173,-0.03995083,0.4959043,0.22818941,0.8369065]",1
257,1569974881026,-7.9394903,0.90771246,5.9372535,-1.402546,0.2076941,0.0122173,-0.03995083,0.4959043,0.22818941,0.8369065,"[-7.9394903,0.90771246,5.9372535,-1.402546,0.2076941,0.0122173,-0.03995083,0.4959043,0.22818941,0.8369065]",1
258,1569974881026,-7.9610453,0.9196875,5.942044,-1.402546,0.2076941,0.0122173,-0.03995083,0.4959043,0.22818941,0.8369065,"[-7.9610453,0.9196875,5.942044,-1.402546,0.2076941,0.0122173,-0.03995083,0.4959043,0.22818941,0.8369065]",1
259,1569974881027,-8.0305,1.0538087,5.855823,-1.402546,0.2076941,0.0122173,-0.03995083,0.4959043,0.22818941,0.8369065,"[-8.0305,1.0538087,5.855823,-1.402546,0.2076941,0.0122173,-0.03995083,0.4959043,0.22818941,0.8369065]",1
260,1569974881028,-8.0305,1.0538087,5.855823,-1.402546,0.2076941,0.0122173,-0.04627173,0.4819547,0.26263633,0.83462614,"[-8.0305,1.0538087,5.855823,-1.402546,0.2076941,0.0122173,-0.04627173,0.4819547,0.26263633,0.83462614]",1
261,1569974881041,-8.0305,1.0538087,5.855823,-1.402546,0.2076941,0.0122173,-0.04627173,0.4819547,0.26263633,0.83462614,"[-8.0305,1.0538087,5.855823,-1.402546,0.2076941,0.0122173,-0.04627173,0.4819547,0.26263633,0.83462614]",1
262,1569974881042,-8.147857,1.3124708,5.6354814,-1.402546,0.2076941,0.0122173,-0.04627173,0.4819547,0.26263633,0.83462614,"[-8.147857,1.3124708,5.6354814,-1.402546,0.2076941,0.0122173,-0.04627173,0.4819547,0.26263633,0.83462614]",1
263,1569974881043,-8.066426,1.4465919,5.4606447,-1.402546,0.2076941,0.0122173,-0.04627173,0.4819547,0.26263633,0.83462614,"[-8.066426,1.4465919,5.4606447,-1.402546,0.2076941,0.0122173,-0.04627173,0.4819547,0.26263633,0.83462614]",1
264,1569974881043,-8.066426,1.4465919,5.4606447,-1.402546,0.2076941,0.0122173,-0.092092596,0.45218143,0.31366614,0.82985806,"[-8.066426,1.4465919,5.4606447,-1.402546,0.2076941,0.0122173,-0.092092596,0.45218143,0.31366614,0.82985806]",1
265,1569974881059,-8.066426,1.4465919,5.4606447,-1.402546,0.2076941,0.0122173,-0.092092596,0.45218143,0.31366614,0.82985806,"[-8.066426,1.4465919,5.4606447,-1.402546,0.2076941,0.0122173,-0.092092596,0.45218143,0.31366614,0.82985806]",1
266,1569974881059,-8.044871,1.3076807,5.264253,-1.402546,0.2076941,0.0122173,-0.092092596,0.45218143,0.31366614,0.82985806,"[-8.044871,1.3076807,5.264253,-1.402546,0.2076941,0.0122173,-0.092092596,0.45218143,0.31366614,0.82985806]",1
267,1569974881061,-8.085587,1.21188,5.269043,-1.402546,0.2076941,0.0122173,-0.092092596,0.45218143,0.31366614,0.82985806,"[-8.085587,1.21188,5.269043,-1.402546,0.2076941,0.0122173,-0.092092596,0.45218143,0.31366614,0.82985806]",1
268,1569974881061,-8.085587,1.21188,5.269043,-1.402546,0.2076941,0.0122173,-0.12785625,0.4311065,0.3505623,0.82152665,"[-8.085587,1.21188,5.269043,-1.402546,0.2076941,0.0122173,-0.12785625,0.4311065,0.3505623,0.82152665]",1
269,1569974881078,-8.085587,1.21188,5.269043,-1.402546,0.2076941,0.0122173,-0.12785625,0.4311065,0.3505623,0.82152665,"[-8.085587,1.21188,5.269043,-1.402546,0.2076941,0.0122173,-0.12785625,0.4311065,0.3505623,0.82152665]",1
270,1569974881078,-8.167017,1.0394385,5.1061816,-1.402546,0.2076941,0.0122173,-0.12785625,0.4311065,0.3505623,0.82152665,"[-8.167017,1.0394385,5.1061816,-1.402546,0.2076941,0.0122173,-0.12785625,0.4311065,0.3505623,0.82152665]",1
271,1569974881079,-8.456815,0.7161109,4.8594947,-1.402546,0.2076941,0.0122173,-0.12785625,0.4311065,0.3505623,0.82152665,"[-8.456815,0.7161109,4.8594947,-1.402546,0.2076941,0.0122173,-0.12785625,0.4311065,0.3505623,0.82152665]",1
272,1569974881079,-8.456815,0.7161109,4.8594947,-1.402546,0.2076941,0.0122173,-0.10405033,0.45520815,0.3316312,0.81974375,"[-8.456815,0.7161109,4.8594947,-1.402546,0.2076941,0.0122173,-0.10405033,0.45520815,0.3316312,0.81974375]",1
273,1569974881098,-8.456815,0.7161109,4.8594947,-1.1007787,0.40561438,0.12583819,-0.10405033,0.45520815,0.3316312,0.81974375,"[-8.456815,0.7161109,4.8594947,-1.1007787,0.40561438,0.12583819,-0.10405033,0.45520815,0.3316312,0.81974375]",1
274,1569974881099,-8.401729,0.7185059,4.840335,-1.1007787,0.40561438,0.12583819,-0.10405033,0.45520815,0.3316312,0.81974375,"[-8.401729,0.7185059,4.840335,-1.1007787,0.40561438,0.12583819,-0.10405033,0.45520815,0.3316312,0.81974375]",1
275,1569974881100,-8.147857,0.81191164,4.967271,-1.1007787,0.40561438,0.12583819,-0.10405033,0.45520815,0.3316312,0.81974375,"[-8.147857,0.81191164,4.967271,-1.1007787,0.40561438,0.12583819,-0.10405033,0.45520815,0.3316312,0.81974375]",1
276,1569974881100,-8.147857,0.81191164,4.967271,-1.1007787,0.40561438,0.12583819,-0.10405033,0.45520815,0.3316312,0.81974375,"[-8.147857,0.81191164,4.967271,-1.1007787,0.40561438,0.12583819,-0.10405033,0.45520815,0.3316312,0.81974375]",1
277,1569974881102,-8.147857,0.81191164,4.967271,-1.1007787,0.40561438,0.12583819,-0.09929409,0.46782783,0.31780896,0.8187034,"[-8.147857,0.81191164,4.967271,-1.1007787,0.40561438,0.12583819,-0.09929409,0.46782783,0.31780896,0.8187034]",1
278,1569974881116,-8.032896,0.859812,5.0702567,-1.1007787,0.40561438,0.12583819,-0.09929409,0.46782783,0.31780896,0.8187034,"[-8.032896,0.859812,5.0702567,-1.1007787,0.40561438,0.12583819,-0.09929409,0.46782783,0.31780896,0.8187034]",1
279,1569974881117,-8.064031,0.7065308,4.873865,-1.1007787,0.40561438,0.12583819,-0.09929409,0.46782783,0.31780896,0.8187034,"[-8.064031,0.7065308,4.873865,-1.1007787,0.40561438,0.12583819,-0.09929409,0.46782783,0.31780896,0.8187034]",1
280,1569974881118,-8.064031,0.7065308,4.873865,-1.1007787,0.40561438,0.12583819,-0.09929409,0.46782783,0.31780896,0.8187034,"[-8.064031,0.7065308,4.873865,-1.1007787,0.40561438,0.12583819,-0.09929409,0.46782783,0.31780896,0.8187034]",1
281,1569974881119,-8.064031,0.7065308,4.873865,-1.1007787,0.40561438,0.12583819,-0.11282232,0.47300607,0.30842352,0.81756425,"[-8.064031,0.7065308,4.873865,-1.1007787,0.40561438,0.12583819,-0.11282232,0.47300607,0.30842352,0.81756425]",1
282,1569974881136,-8.064031,0.7065308,4.873865,-1.1007787,0.40561438,0.12583819,-0.11282232,0.47300607,0.30842352,0.81756425,"[-8.064031,0.7065308,4.873865,-1.1007787,0.40561438,0.12583819,-0.11282232,0.47300607,0.30842352,0.81756425]",1
283,1569974881137,-8.226892,0.2562671,4.9337406,-1.1007787,0.40561438,0.12583819,-0.11282232,0.47300607,0.30842352,0.81756425,"[-8.226892,0.2562671,4.9337406,-1.1007787,0.40561438,0.12583819,-0.11282232,0.47300607,0.30842352,0.81756425]",1
284,1569974881138,-8.023315,-0.69216067,6.1887307,-1.1007787,0.40561438,0.12583819,-0.11282232,0.47300607,0.30842352,0.81756425,"[-8.023315,-0.69216067,6.1887307,-1.1007787,0.40561438,0.12583819,-0.11282232,0.47300607,0.30842352,0.81756425]",1
285,1569974881140,-8.023315,-0.69216067,6.1887307,-1.1007787,0.40561438,0.12583819,-0.12470557,0.48531798,0.2860086,0.8167705,"[-8.023315,-0.69216067,6.1887307,-1.1007787,0.40561438,0.12583819,-0.12470557,0.48531798,0.2860086,0.8167705]",1
286,1569974881158,-7.335945,-2.7159522,8.380174,-1.1007787,0.40561438,0.12583819,-0.12470557,0.48531798,0.2860086,0.8167705,"[-7.335945,-2.7159522,8.380174,-1.1007787,0.40561438,0.12583819,-0.12470557,0.48531798,0.2860086,0.8167705]",1
287,1569974881159,-7.434141,-2.806963,7.0365677,-1.1007787,0.40561438,0.12583819,-0.12470557,0.48531798,0.2860086,0.8167705,"[-7.434141,-2.806963,7.0365677,-1.1007787,0.40561438,0.12583819,-0.12470557,0.48531798,0.2860086,0.8167705]",1
288,1569974881160,-7.434141,-2.806963,7.0365677,-1.1007787,0.40561438,0.12583819,-0.12470557,0.48531798,0.2860086,0.8167705,"[-7.434141,-2.806963,7.0365677,-1.1007787,0.40561438,0.12583819,-0.12470557,0.48531798,0.2860086,0.8167705]",1
289,1569974881160,-7.434141,-2.806963,7.0365677,-1.1007787,0.40561438,0.12583819,-0.121881455,0.468352,0.309271,0.81862247,"[-7.434141,-2.806963,7.0365677,-1.1007787,0.40561438,0.12583819,-0.121881455,0.468352,0.309271,0.81862247]",1
290,1569974881173,-7.434141,-2.806963,7.0365677,-0.97494054,0.50701797,0.21258102,-0.121881455,0.468352,0.309271,0.81862247,"[-7.434141,-2.806963,7.0365677,-0.97494054,0.50701797,0.21258102,-0.121881455,0.468352,0.309271,0.81862247]",1
291,1569974881176,-7.434141,-2.806963,7.0365677,-0.97494054,0.50701797,0.21258102,-0.121881455,0.468352,0.309271,0.81862247,"[-7.434141,-2.806963,7.0365677,-0.97494054,0.50701797,0.21258102,-0.121881455,0.468352,0.309271,0.81862247]",1
292,1569974881177,-9.206455,-0.9915381,5.724097,-0.97494054,0.50701797,0.21258102,-0.121881455,0.468352,0.309271,0.81862247,"[-9.206455,-0.9915381,5.724097,-0.97494054,0.50701797,0.21258102,-0.121881455,0.468352,0.309271,0.81862247]",1
293,1569974881178,-9.699829,0.42152345,4.277505,-0.97494054,0.50701797,0.21258102,-0.121881455,0.468352,0.309271,0.81862247,"[-9.699829,0.42152345,4.277505,-0.97494054,0.50701797,0.21258102,-0.121881455,0.468352,0.309271,0.81862247]",1
294,1569974881179,-9.699829,0.42152345,4.277505,-0.97494054,0.50701797,0.21258102,-0.16372547,0.46489742,0.3144379,0.81129104,"[-9.699829,0.42152345,4.277505,-0.97494054,0.50701797,0.21258102,-0.16372547,0.46489742,0.3144379,0.81129104]",1
295,1569974881192,-8.904683,1.3531861,4.598438,-0.97494054,0.50701797,0.21258102,-0.16372547,0.46489742,0.3144379,0.81129104,"[-8.904683,1.3531861,4.598438,-0.97494054,0.50701797,0.21258102,-0.16372547,0.46489742,0.3144379,0.81129104]",1
296,1569974881194,-8.353828,1.21188,4.28469,-0.97494054,0.50701797,0.21258102,-0.16372547,0.46489742,0.3144379,0.81129104,"[-8.353828,1.21188,4.28469,-0.97494054,0.50701797,0.21258102,-0.16372547,0.46489742,0.3144379,0.81129104]",1
297,1569974881196,-8.353828,1.21188,4.28469,-0.97494054,0.50701797,0.21258102,-0.16372547,0.46489742,0.3144379,0.81129104,"[-8.353828,1.21188,4.28469,-0.97494054,0.50701797,0.21258102,-0.16372547,0.46489742,0.3144379,0.81129104]",1
298,1569974881197,-8.353828,1.21188,4.28469,-0.97494054,0.50701797,0.21258102,-0.3158048,0.18644805,0.5870734,0.7216989,"[-8.353828,1.21188,4.28469,-0.97494054,0.50701797,0.21258102,-0.3158048,0.18644805,0.5870734,0.7216989]",1
299,1569974881212,-8.495134,1.1448194,4.0811133,-0.97494054,0.50701797,0.21258102,-0.3158048,0.18644805,0.5870734,0.7216989,"[-8.495134,1.1448194,4.0811133,-0.97494054,0.50701797,0.21258102,-0.3158048,0.18644805,0.5870734,0.7216989]",1
300,1569974881214,-8.660391,0.97956306,3.8344264,-0.97494054,0.50701797,0.21258102,-0.3158048,0.18644805,0.5870734,0.7216989,"[-8.660391,0.97956306,3.8344264,-0.97494054,0.50701797,0.21258102,-0.3158048,0.18644805,0.5870734,0.7216989]",1
301,1569974881216,-8.660391,0.97956306,3.8344264,-0.97494054,0.50701797,0.21258102,-0.3158048,0.18644805,0.5870734,0.7216989,"[-8.660391,0.97956306,3.8344264,-0.97494054,0.50701797,0.21258102,-0.3158048,0.18644805,0.5870734,0.7216989]",1
302,1569974881217,-8.660391,0.97956306,3.8344264,-0.97494054,0.50701797,0.21258102,-0.2641617,0.40903562,0.3925641,0.7802576,"[-8.660391,0.97956306,3.8344264,-0.97494054,0.50701797,0.21258102,-0.2641617,0.40903562,0.3925641,0.7802576]",1
303,1569974881236,-8.528665,0.2802173,4.366121,-0.97494054,0.50701797,0.21258102,-0.2641617,0.40903562,0.3925641,0.7802576,"[-8.528665,0.2802173,4.366121,-0.97494054,0.50701797,0.21258102,-0.2641617,0.40903562,0.3925641,0.7802576]",1
304,1569974881237,-8.035291,-0.49576905,5.726492,-0.97494054,0.50701797,0.21258102,-0.2641617,0.40903562,0.3925641,0.7802576,"[-8.035291,-0.49576905,5.726492,-0.97494054,0.50701797,0.21258102,-0.2641617,0.40903562,0.3925641,0.7802576]",1
305,1569974881238,-8.035291,-0.49576905,5.726492,-0.97494054,0.50701797,0.21258102,-0.2641617,0.40903562,0.3925641,0.7802576,"[-8.035291,-0.49576905,5.726492,-0.97494054,0.50701797,0.21258102,-0.2641617,0.40903562,0.3925641,0.7802576]",1
306,1569974881241,-8.035291,-0.49576905,5.726492,-0.97494054,0.50701797,0.21258102,-0.03591365,0.52091694,0.18582098,0.8323619,"[-8.035291,-0.49576905,5.726492,-0.97494054,0.50701797,0.21258102,-0.03591365,0.52091694,0.18582098,0.8323619]",1
307,1569974881250,-8.035291,-0.49576905,5.726492,-0.57543486,0.2638937,0.00977384,-0.03591365,0.52091694,0.18582098,0.8323619,"[-8.035291,-0.49576905,5.726492,-0.57543486,0.2638937,0.00977384,-0.03591365,0.52091694,0.18582098,0.8323619]",1
308,1569974881252,-7.654483,-0.7089258,6.13604,-0.57543486,0.2638937,0.00977384,-0.03591365,0.52091694,0.18582098,0.8323619,"[-7.654483,-0.7089258,6.13604,-0.57543486,0.2638937,0.00977384,-0.03591365,0.52091694,0.18582098,0.8323619]",1
309,1569974881253,-8.152647,-0.21076173,5.4175344,-0.57543486,0.2638937,0.00977384,-0.03591365,0.52091694,0.18582098,0.8323619,"[-8.152647,-0.21076173,5.4175344,-0.57543486,0.2638937,0.00977384,-0.03591365,0.52091694,0.18582098,0.8323619]",1
310,1569974881255,-8.152647,-0.21076173,5.4175344,-0.57543486,0.2638937,0.00977384,-0.03591365,0.52091694,0.18582098,0.8323619,"[-8.152647,-0.21076173,5.4175344,-0.57543486,0.2638937,0.00977384,-0.03591365,0.52091694,0.18582098,0.8323619]",1
311,1569974881256,-8.152647,-0.21076173,5.4175344,-0.57543486,0.2638937,0.00977384,-0.012823889,0.5337614,0.1330195,0.8350091,"[-8.152647,-0.21076173,5.4175344,-0.57543486,0.2638937,0.00977384,-0.012823889,0.5337614,0.1330195,0.8350091]",1
312,1569974881271,-8.152647,-0.21076173,5.4175344,-0.57543486,0.2638937,0.00977384,-0.012823889,0.5337614,0.1330195,0.8350091,"[-8.152647,-0.21076173,5.4175344,-0.57543486,0.2638937,0.00977384,-0.012823889,0.5337614,0.1330195,0.8350091]",1
313,1569974881272,-9.022039,0.34488282,4.7229786,-0.57543486,0.2638937,0.00977384,-0.012823889,0.5337614,0.1330195,0.8350091,"[-9.022039,0.34488282,4.7229786,-0.57543486,0.2638937,0.00977384,-0.012823889,0.5337614,0.1330195,0.8350091]",1
314,1569974881273,-9.204061,0.76880133,4.157754,-0.57543486,0.2638937,0.00977384,-0.012823889,0.5337614,0.1330195,0.8350091,"[-9.204061,0.76880133,4.157754,-0.57543486,0.2638937,0.00977384,-0.012823889,0.5337614,0.1330195,0.8350091]",1
315,1569974881274,-9.204061,0.76880133,4.157754,-0.57543486,0.2638937,0.00977384,-0.07072855,0.51696104,0.14333077,0.84095484,"[-9.204061,0.76880133,4.157754,-0.57543486,0.2638937,0.00977384,-0.07072855,0.51696104,0.14333077,0.84095484]",1
316,1569974881289,-8.933423,0.84065187,4.1314087,-0.57543486,0.2638937,0.00977384,-0.07072855,0.51696104,0.14333077,0.84095484,"[-8.933423,0.84065187,4.1314087,-0.57543486,0.2638937,0.00977384,-0.07072855,0.51696104,0.14333077,0.84095484]",1
317,1569974881290,-8.466394,0.6562354,4.5457473,-0.57543486,0.2638937,0.00977384,-0.07072855,0.51696104,0.14333077,0.84095484,"[-8.466394,0.6562354,4.5457473,-0.57543486,0.2638937,0.00977384,-0.07072855,0.51696104,0.14333077,0.84095484]",1
318,1569974881291,-8.466394,0.6562354,4.5457473,-0.57543486,0.2638937,0.00977384,-0.07072855,0.51696104,0.14333077,0.84095484,"[-8.466394,0.6562354,4.5457473,-0.57543486,0.2638937,0.00977384,-0.07072855,0.51696104,0.14333077,0.84095484]",1
319,1569974881292,-8.466394,0.6562354,4.5457473,-0.57543486,0.2638937,0.00977384,-0.21474442,0.3767808,0.3720824,0.8206557,"[-8.466394,0.6562354,4.5457473,-0.57543486,0.2638937,0.00977384,-0.21474442,0.3767808,0.3720824,0.8206557]",1
320,1569974881311,-7.94907,0.4981641,4.615203,-0.57543486,0.2638937,0.00977384,-0.21474442,0.3767808,0.3720824,0.8206557,"[-7.94907,0.4981641,4.615203,-0.57543486,0.2638937,0.00977384,-0.21474442,0.3767808,0.3720824,0.8206557]",1
321,1569974881312,-7.90117,0.17483643,4.488267,-0.57543486,0.2638937,0.00977384,-0.21474442,0.3767808,0.3720824,0.8206557,"[-7.90117,0.17483643,4.488267,-0.57543486,0.2638937,0.00977384,-0.21474442,0.3767808,0.3720824,0.8206557]",1
322,1569974881313,-7.90117,0.17483643,4.488267,-0.57543486,0.2638937,0.00977384,-0.21474442,0.3767808,0.3720824,0.8206557,"[-7.90117,0.17483643,4.488267,-0.57543486,0.2638937,0.00977384,-0.21474442,0.3767808,0.3720824,0.8206557]",1
323,1569974881314,-7.90117,0.17483643,4.488267,-0.57543486,0.2638937,0.00977384,-0.065835774,0.5137167,0.14107098,0.8437179,"[-7.90117,0.17483643,4.488267,-0.57543486,0.2638937,0.00977384,-0.065835774,0.5137167,0.14107098,0.8437179]",1
324,1569974881327,-7.90117,0.17483643,4.488267,-0.610865,0.21380275,0.0,-0.065835774,0.5137167,0.14107098,0.8437179,"[-7.90117,0.17483643,4.488267,-0.610865,0.21380275,0.0,-0.065835774,0.5137167,0.14107098,0.8437179]",1
325,1569974881329,-7.90117,0.17483643,4.488267,-0.610865,0.21380275,0.0,-0.065835774,0.5137167,0.14107098,0.8437179,"[-7.90117,0.17483643,4.488267,-0.610865,0.21380275,0.0,-0.065835774,0.5137167,0.14107098,0.8437179]",1
326,1569974881330,-8.207732,-0.22992188,4.4571314,-0.610865,0.21380275,0.0,-0.065835774,0.5137167,0.14107098,0.8437179,"[-8.207732,-0.22992188,4.4571314,-0.610865,0.21380275,0.0,-0.065835774,0.5137167,0.14107098,0.8437179]",1
327,1569974881331,-8.315508,-0.1460962,4.488267,-0.610865,0.21380275,0.0,-0.065835774,0.5137167,0.14107098,0.8437179,"[-8.315508,-0.1460962,4.488267,-0.610865,0.21380275,0.0,-0.065835774,0.5137167,0.14107098,0.8437179]",1
328,1569974881332,-8.315508,-0.1460962,4.488267,-0.610865,0.21380275,0.0,-0.0016906196,0.539335,0.0815213,0.83813435,"[-8.315508,-0.1460962,4.488267,-0.610865,0.21380275,0.0,-0.0016906196,0.539335,0.0815213,0.83813435]",1
329,1569974881347,-8.3179035,-0.059875492,4.5864625,-0.610865,0.21380275,0.0,-0.0016906196,0.539335,0.0815213,0.83813435,"[-8.3179035,-0.059875492,4.5864625,-0.610865,0.21380275,0.0,-0.0016906196,0.539335,0.0815213,0.83813435]",1
330,1569974881348,-8.085587,0.25147706,4.4619217,-0.610865,0.21380275,0.0,-0.0016906196,0.539335,0.0815213,0.83813435,"[-8.085587,0.25147706,4.4619217,-0.610865,0.21380275,0.0,-0.0016906196,0.539335,0.0815213,0.83813435]",1
331,1569974881355,-8.085587,0.25147706,4.4619217,-0.610865,0.21380275,0.0,-0.0016906196,0.539335,0.0815213,0.83813435,"[-8.085587,0.25147706,4.4619217,-0.610865,0.21380275,0.0,-0.0016906196,0.539335,0.0815213,0.83813435]",1
332,1569974881357,-8.085587,0.25147706,4.4619217,-0.610865,0.21380275,0.0,-0.068257764,0.4946278,0.17189316,0.8491978,"[-8.085587,0.25147706,4.4619217,-0.610865,0.21380275,0.0,-0.068257764,0.4946278,0.17189316,0.8491978]",1
333,1569974881366,-8.255632,0.5364844,4.2008643,-0.610865,0.21380275,0.0,-0.068257764,0.4946278,0.17189316,0.8491978,"[-8.255632,0.5364844,4.2008643,-0.610865,0.21380275,0.0,-0.068257764,0.4946278,0.17189316,0.8491978]",1
334,1569974881368,-8.617281,0.55324954,4.2343946,-0.610865,0.21380275,0.0,-0.068257764,0.4946278,0.17189316,0.8491978,"[-8.617281,0.55324954,4.2343946,-0.610865,0.21380275,0.0,-0.068257764,0.4946278,0.17189316,0.8491978]",1
335,1569974881369,-8.617281,0.55324954,4.2343946,-0.610865,0.21380275,0.0,-0.068257764,0.4946278,0.17189316,0.8491978,"[-8.617281,0.55324954,4.2343946,-0.610865,0.21380275,0.0,-0.068257764,0.4946278,0.17189316,0.8491978]",1
336,1569974881374,-8.617281,0.55324954,4.2343946,-0.610865,0.21380275,0.0,-0.10591586,0.50024587,0.15439634,0.84539795,"[-8.617281,0.55324954,4.2343946,-0.610865,0.21380275,0.0,-0.10591586,0.50024587,0.15439634,0.84539795]",1
337,1569974881388,-8.847202,0.22273682,4.038003,-0.610865,0.21380275,0.0,-0.10591586,0.50024587,0.15439634,0.84539795,"[-8.847202,0.22273682,4.038003,-0.610865,0.21380275,0.0,-0.10591586,0.50024587,0.15439634,0.84539795]",1
338,1569974881389,-9.057964,-0.2203418,4.2056546,-0.610865,0.21380275,0.0,-0.10591586,0.50024587,0.15439634,0.84539795,"[-9.057964,-0.2203418,4.2056546,-0.610865,0.21380275,0.0,-0.10591586,0.50024587,0.15439634,0.84539795]",1
339,1569974881390,-9.057964,-0.2203418,4.2056546,-0.610865,0.21380275,0.0,-0.10591586,0.50024587,0.15439634,0.84539795,"[-9.057964,-0.2203418,4.2056546,-0.610865,0.21380275,0.0,-0.10591586,0.50024587,0.15439634,0.84539795]",1
340,1569974881391,-9.057964,-0.2203418,4.2056546,-0.610865,0.21380275,0.0,-0.09767911,0.499034,0.15931508,0.846193,"[-9.057964,-0.2203418,4.2056546,-0.610865,0.21380275,0.0,-0.09767911,0.499034,0.15931508,0.846193]",1
341,1569974881404,-9.057964,-0.2203418,4.2056546,-0.6059781,0.17837258,-0.06597342,-0.09767911,0.499034,0.15931508,0.846193,"[-9.057964,-0.2203418,4.2056546,-0.6059781,0.17837258,-0.06597342,-0.09767911,0.499034,0.15931508,0.846193]",1
342,1569974881406,-9.057964,-0.2203418,4.2056546,-0.6059781,0.17837258,-0.06597342,-0.09767911,0.499034,0.15931508,0.846193,"[-9.057964,-0.2203418,4.2056546,-0.6059781,0.17837258,-0.06597342,-0.09767911,0.499034,0.15931508,0.846193]",1
343,1569974881407,-9.05557,-0.49576905,4.521797,-0.6059781,0.17837258,-0.06597342,-0.09767911,0.499034,0.15931508,0.846193,"[-9.05557,-0.49576905,4.521797,-0.6059781,0.17837258,-0.06597342,-0.09767911,0.499034,0.15931508,0.846193]",1
344,1569974881409,-8.794512,-0.58198977,4.3397756,-0.6059781,0.17837258,-0.06597342,-0.09767911,0.499034,0.15931508,0.846193,"[-8.794512,-0.58198977,4.3397756,-0.6059781,0.17837258,-0.06597342,-0.09767911,0.499034,0.15931508,0.846193]",1
345,1569974881411,-8.794512,-0.58198977,4.3397756,-0.6059781,0.17837258,-0.06597342,-0.03860154,0.5216643,0.11787868,0.8440858,"[-8.794512,-0.58198977,4.3397756,-0.6059781,0.17837258,-0.06597342,-0.03860154,0.5216643,0.11787868,0.8440858]",1
346,1569974881424,-8.794512,-0.58198977,4.3397756,-0.6059781,0.17837258,-0.06597342,-0.03860154,0.5216643,0.11787868,0.8440858,"[-8.794512,-0.58198977,4.3397756,-0.6059781,0.17837258,-0.06597342,-0.03860154,0.5216643,0.11787868,0.8440858]",1
347,1569974881426,-8.830438,-0.5340894,4.2751102,-0.6059781,0.17837258,-0.06597342,-0.03860154,0.5216643,0.11787868,0.8440858,"[-8.830438,-0.5340894,4.2751102,-0.6059781,0.17837258,-0.06597342,-0.03860154,0.5216643,0.11787868,0.8440858]",1
348,1569974881427,-8.851993,-0.39757326,4.160149,-0.6059781,0.17837258,-0.06597342,-0.03860154,0.5216643,0.11787868,0.8440858,"[-8.851993,-0.39757326,4.160149,-0.6059781,0.17837258,-0.06597342,-0.03860154,0.5216643,0.11787868,0.8440858]",1
349,1569974881428,-8.851993,-0.39757326,4.160149,-0.6059781,0.17837258,-0.06597342,-0.031508874,0.539866,0.07012918,0.8382326,"[-8.851993,-0.39757326,4.160149,-0.6059781,0.17837258,-0.06597342,-0.031508874,0.539866,0.07012918,0.8382326]",1
350,1569974881444,-8.851993,-0.39757326,4.160149,-0.6059781,0.17837258,-0.06597342,-0.031508874,0.539866,0.07012918,0.8382326,"[-8.851993,-0.39757326,4.160149,-0.6059781,0.17837258,-0.06597342,-0.031508874,0.539866,0.07012918,0.8382326]",1
351,1569974881445,-8.911868,-0.366438,4.1146436,-0.6059781,0.17837258,-0.06597342,-0.031508874,0.539866,0.07012918,0.8382326,"[-8.911868,-0.366438,4.1146436,-0.6059781,0.17837258,-0.06597342,-0.031508874,0.539866,0.07012918,0.8382326]",1
352,1569974881446,-9.043594,-0.3161426,4.3445654,-0.6059781,0.17837258,-0.06597342,-0.031508874,0.539866,0.07012918,0.8382326,"[-9.043594,-0.3161426,4.3445654,-0.6059781,0.17837258,-0.06597342,-0.031508874,0.539866,0.07012918,0.8382326]",1
353,1569974881448,-9.043594,-0.3161426,4.3445654,-0.6059781,0.17837258,-0.06597342,-0.102145486,0.51620114,0.119219095,0.8419557,"[-9.043594,-0.3161426,4.3445654,-0.6059781,0.17837258,-0.06597342,-0.102145486,0.51620114,0.119219095,0.8419557]",1
354,1569974881464,-8.907078,-0.37122804,4.514612,-0.6059781,0.17837258,-0.06597342,-0.102145486,0.51620114,0.119219095,0.8419557,"[-8.907078,-0.37122804,4.514612,-0.6059781,0.17837258,-0.06597342,-0.102145486,0.51620114,0.119219095,0.8419557]",1
355,1569974881466,-8.681946,-0.65384036,4.6271777,-0.6059781,0.17837258,-0.06597342,-0.102145486,0.51620114,0.119219095,0.8419557,"[-8.681946,-0.65384036,4.6271777,-0.6059781,0.17837258,-0.06597342,-0.102145486,0.51620114,0.119219095,0.8419557]",1
356,1569974881467,-8.681946,-0.65384036,4.6271777,-0.6059781,0.17837258,-0.06597342,-0.102145486,0.51620114,0.119219095,0.8419557,"[-8.681946,-0.65384036,4.6271777,-0.6059781,0.17837258,-0.06597342,-0.102145486,0.51620114,0.119219095,0.8419557]",1
357,1569974881468,-8.681946,-0.65384036,4.6271777,-0.6059781,0.17837258,-0.06597342,-0.09707627,0.52251524,0.104166865,0.84065646,"[-8.681946,-0.65384036,4.6271777,-0.6059781,0.17837258,-0.06597342,-0.09707627,0.52251524,0.104166865,0.84065646]",1
358,1569974881480,-8.681946,-0.65384036,4.6271777,0.08674283,-0.05986477,-0.06963861,-0.09707627,0.52251524,0.104166865,0.84065646,"[-8.681946,-0.65384036,4.6271777,0.08674283,-0.05986477,-0.06963861,-0.09707627,0.52251524,0.104166865,0.84065646]",1
359,1569974881483,-8.681946,-0.65384036,4.6271777,0.08674283,-0.05986477,-0.06963861,-0.09707627,0.52251524,0.104166865,0.84065646,"[-8.681946,-0.65384036,4.6271777,0.08674283,-0.05986477,-0.06963861,-0.09707627,0.52251524,0.104166865,0.84065646]",1
360,1569974881485,-8.734636,-0.69695073,4.7972245,0.08674283,-0.05986477,-0.06963861,-0.09707627,0.52251524,0.104166865,0.84065646,"[-8.734636,-0.69695073,4.7972245,0.08674283,-0.05986477,-0.06963861,-0.09707627,0.52251524,0.104166865,0.84065646]",1
361,1569974881486,-8.875943,-0.25387207,4.567302,0.08674283,-0.05986477,-0.06963861,-0.09707627,0.52251524,0.104166865,0.84065646,"[-8.875943,-0.25387207,4.567302,0.08674283,-0.05986477,-0.06963861,-0.09707627,0.52251524,0.104166865,0.84065646]",1
362,1569974881487,-8.875943,-0.25387207,4.567302,0.08674283,-0.05986477,-0.06963861,-0.07007299,0.5344574,0.07509278,0.83893156,"[-8.875943,-0.25387207,4.567302,0.08674283,-0.05986477,-0.06963861,-0.07007299,0.5344574,0.07509278,0.83893156]",1
363,1569974881501,-8.875943,-0.25387207,4.567302,0.08674283,-0.05986477,-0.06963861,-0.07007299,0.5344574,0.07509278,0.83893156,"[-8.875943,-0.25387207,4.567302,0.08674283,-0.05986477,-0.06963861,-0.07007299,0.5344574,0.07509278,0.83893156]",1
364,1569974881505,-9.038804,0.23231691,3.903882,0.08674283,-0.05986477,-0.06963861,-0.07007299,0.5344574,0.07509278,0.83893156,"[-9.038804,0.23231691,3.903882,0.08674283,-0.05986477,-0.06963861,-0.07007299,0.5344574,0.07509278,0.83893156]",1
365,1569974881516,-9.14179,0.40715334,3.7529957,0.08674283,-0.05986477,-0.06963861,-0.07007299,0.5344574,0.07509278,0.83893156,"[-9.14179,0.40715334,3.7529957,0.08674283,-0.05986477,-0.06963861,-0.07007299,0.5344574,0.07509278,0.83893156]",1
366,1569974881518,-9.14179,0.40715334,3.7529957,0.08674283,-0.05986477,-0.06963861,-0.09841785,0.514218,0.12517393,0.84274864,"[-9.14179,0.40715334,3.7529957,0.08674283,-0.05986477,-0.06963861,-0.09841785,0.514218,0.12517393,0.84274864]",1
367,1569974881520,-9.14179,0.40715334,3.7529957,0.08674283,-0.05986477,-0.06963861,-0.09841785,0.514218,0.12517393,0.84274864,"[-9.14179,0.40715334,3.7529957,0.08674283,-0.05986477,-0.06963861,-0.09841785,0.514218,0.12517393,0.84274864]",1
368,1569974881522,-8.890313,0.34009278,4.0499783,0.08674283,-0.05986477,-0.06963861,-0.09841785,0.514218,0.12517393,0.84274864,"[-8.890313,0.34009278,4.0499783,0.08674283,-0.05986477,-0.06963861,-0.09841785,0.514218,0.12517393,0.84274864]",1
369,1569974881524,-8.717872,-0.244292,4.2104445,0.08674283,-0.05986477,-0.06963861,-0.09841785,0.514218,0.12517393,0.84274864,"[-8.717872,-0.244292,4.2104445,0.08674283,-0.05986477,-0.06963861,-0.09841785,0.514218,0.12517393,0.84274864]",1
370,1569974881525,-8.717872,-0.244292,4.2104445,0.08674283,-0.05986477,-0.06963861,-0.14546524,0.48860002,0.17911805,0.8414432,"[-8.717872,-0.244292,4.2104445,0.08674283,-0.05986477,-0.06963861,-0.14546524,0.48860002,0.17911805,0.8414432]",1
371,1569974881540,-8.717872,-0.244292,4.2104445,0.08674283,-0.05986477,-0.06963861,-0.14546524,0.48860002,0.17911805,0.8414432,"[-8.717872,-0.244292,4.2104445,0.08674283,-0.05986477,-0.06963861,-0.14546524,0.48860002,0.17911805,0.8414432]",1
372,1569974881541,-8.528665,-0.6322852,4.5529323,0.08674283,-0.05986477,-0.06963861,-0.14546524,0.48860002,0.17911805,0.8414432,"[-8.528665,-0.6322852,4.5529323,0.08674283,-0.05986477,-0.06963861,-0.14546524,0.48860002,0.17911805,0.8414432]",1
373,1569974881542,-8.473579,-0.7879615,4.967271,0.08674283,-0.05986477,-0.06963861,-0.14546524,0.48860002,0.17911805,0.8414432,"[-8.473579,-0.7879615,4.967271,0.08674283,-0.05986477,-0.06963861,-0.14546524,0.48860002,0.17911805,0.8414432]",1
374,1569974881544,-8.473579,-0.7879615,4.967271,0.08674283,-0.05986477,-0.06963861,-0.016407175,0.54912233,0.046406448,0.8342913,"[-8.473579,-0.7879615,4.967271,0.08674283,-0.05986477,-0.06963861,-0.016407175,0.54912233,0.046406448,0.8342913]",1
375,1569974881558,-8.473579,-0.7879615,4.967271,-0.09651667,-0.109955706,-0.018325951,-0.016407175,0.54912233,0.046406448,0.8342913,"[-8.473579,-0.7879615,4.967271,-0.09651667,-0.109955706,-0.018325951,-0.016407175,0.54912233,0.046406448,0.8342913]",1
376,1569974881561,-8.473579,-0.7879615,4.967271,-0.09651667,-0.109955706,-0.018325951,-0.016407175,0.54912233,0.046406448,0.8342913,"[-8.473579,-0.7879615,4.967271,-0.09651667,-0.109955706,-0.018325951,-0.016407175,0.54912233,0.046406448,0.8342913]",1
377,1569974881562,-8.210127,-0.55803955,4.9481106,-0.09651667,-0.109955706,-0.018325951,-0.016407175,0.54912233,0.046406448,0.8342913,"[-8.210127,-0.55803955,4.9481106,-0.09651667,-0.109955706,-0.018325951,-0.016407175,0.54912233,0.046406448,0.8342913]",1
378,1569974881567,-8.066426,-0.07424561,5.015171,-0.09651667,-0.109955706,-0.018325951,-0.016407175,0.54912233,0.046406448,0.8342913,"[-8.066426,-0.07424561,5.015171,-0.09651667,-0.109955706,-0.018325951,-0.016407175,0.54912233,0.046406448,0.8342913]",1
379,1569974881569,-8.066426,-0.07424561,5.015171,-0.09651667,-0.109955706,-0.018325951,-0.024079729,0.5406159,0.06950507,0.83804756,"[-8.066426,-0.07424561,5.015171,-0.09651667,-0.109955706,-0.018325951,-0.024079729,0.5406159,0.06950507,0.83804756]",1
380,1569974881581,-8.023315,0.28979737,5.127737,-0.09651667,-0.109955706,-0.018325951,-0.024079729,0.5406159,0.06950507,0.83804756,"[-8.023315,0.28979737,5.127737,-0.09651667,-0.109955706,-0.018325951,-0.024079729,0.5406159,0.06950507,0.83804756]",1
381,1569974881582,-7.9706254,0.30895755,5.0846267,-0.09651667,-0.109955706,-0.018325951,-0.024079729,0.5406159,0.06950507,0.83804756,"[-7.9706254,0.30895755,5.0846267,-0.09651667,-0.109955706,-0.018325951,-0.024079729,0.5406159,0.06950507,0.83804756]",1
382,1569974881583,-7.9706254,0.30895755,5.0846267,-0.09651667,-0.109955706,-0.018325951,-0.024079729,0.5406159,0.06950507,0.83804756,"[-7.9706254,0.30895755,5.0846267,-0.09651667,-0.109955706,-0.018325951,-0.024079729,0.5406159,0.06950507,0.83804756]",1
383,1569974881586,-7.9706254,0.30895755,5.0846267,-0.09651667,-0.109955706,-0.018325951,-0.13177493,0.49766424,0.15756735,0.84269696,"[-7.9706254,0.30895755,5.0846267,-0.09651667,-0.109955706,-0.018325951,-0.13177493,0.49766424,0.15756735,0.84269696]",1
384,1569974881598,-7.9706254,0.30895755,5.0846267,-0.09651667,-0.109955706,-0.018325951,-0.13177493,0.49766424,0.15756735,0.84269696,"[-7.9706254,0.30895755,5.0846267,-0.09651667,-0.109955706,-0.018325951,-0.13177493,0.49766424,0.15756735,0.84269696]",1
385,1569974881599,-8.226892,0.39517823,5.1684523,-0.09651667,-0.109955706,-0.018325951,-0.13177493,0.49766424,0.15756735,0.84269696,"[-8.226892,0.39517823,5.1684523,-0.09651667,-0.109955706,-0.018325951,-0.13177493,0.49766424,0.15756735,0.84269696]",1
386,1569974881601,-8.624466,0.7496411,4.471502,-0.09651667,-0.109955706,-0.018325951,-0.13177493,0.49766424,0.15756735,0.84269696,"[-8.624466,0.7496411,4.471502,-0.09651667,-0.109955706,-0.018325951,-0.13177493,0.49766424,0.15756735,0.84269696]",1
387,1569974881602,-8.624466,0.7496411,4.471502,-0.09651667,-0.109955706,-0.018325951,-0.15691637,0.46660587,0.2208657,0.8419469,"[-8.624466,0.7496411,4.471502,-0.09651667,-0.109955706,-0.018325951,-0.15691637,0.46660587,0.2208657,0.8419469]",1
388,1569974881617,-8.624466,0.7496411,4.471502,-0.09651667,-0.109955706,-0.018325951,-0.15691637,0.46660587,0.2208657,0.8419469,"[-8.624466,0.7496411,4.471502,-0.09651667,-0.109955706,-0.018325951,-0.15691637,0.46660587,0.2208657,0.8419469]",1
389,1569974881619,-8.56938,0.28261232,5.1660576,-0.09651667,-0.109955706,-0.018325951,-0.15691637,0.46660587,0.2208657,0.8419469,"[-8.56938,0.28261232,5.1660576,-0.09651667,-0.109955706,-0.018325951,-0.15691637,0.46660587,0.2208657,0.8419469]",1
390,1569974881620,-7.9682302,-0.41194338,5.5516553,-0.09651667,-0.109955706,-0.018325951,-0.15691637,0.46660587,0.2208657,0.8419469,"[-7.9682302,-0.41194338,5.5516553,-0.09651667,-0.109955706,-0.018325951,-0.15691637,0.46660587,0.2208657,0.8419469]",1
391,1569974881621,-7.9682302,-0.41194338,5.5516553,-0.09651667,-0.109955706,-0.018325951,-0.10208184,0.4695154,0.21713668,0.8496977,"[-7.9682302,-0.41194338,5.5516553,-0.09651667,-0.109955706,-0.018325951,-0.10208184,0.4695154,0.21713668,0.8496977]",1
392,1569974881636,-7.9682302,-0.41194338,5.5516553,0.30298904,-0.10018186,0.13439031,-0.10208184,0.4695154,0.21713668,0.8496977,"[-7.9682302,-0.41194338,5.5516553,0.30298904,-0.10018186,0.13439031,-0.10208184,0.4695154,0.21713668,0.8496977]",1
393,1569974881638,-7.9682302,-0.41194338,5.5516553,0.30298904,-0.10018186,0.13439031,-0.10208184,0.4695154,0.21713668,0.8496977,"[-7.9682302,-0.41194338,5.5516553,0.30298904,-0.10018186,0.13439031,-0.10208184,0.4695154,0.21713668,0.8496977]",1
394,1569974881640,-7.7478886,-0.22513184,6.325247,0.30298904,-0.10018186,0.13439031,-0.10208184,0.4695154,0.21713668,0.8496977,"[-7.7478886,-0.22513184,6.325247,0.30298904,-0.10018186,0.13439031,-0.10208184,0.4695154,0.21713668,0.8496977]",1
395,1569974881641,-7.702383,0.4622388,5.4678297,0.30298904,-0.10018186,0.13439031,-0.10208184,0.4695154,0.21713668,0.8496977,"[-7.702383,0.4622388,5.4678297,0.30298904,-0.10018186,0.13439031,-0.10208184,0.4695154,0.21713668,0.8496977]",1
396,1569974881643,-7.702383,0.4622388,5.4678297,0.30298904,-0.10018186,0.13439031,-0.09156408,0.47523776,0.2065939,0.8503435,"[-7.702383,0.4622388,5.4678297,0.30298904,-0.10018186,0.13439031,-0.09156408,0.47523776,0.2065939,0.8503435]",1
397,1569974881656,-7.702383,0.4622388,5.4678297,0.30298904,-0.10018186,0.13439031,-0.09156408,0.47523776,0.2065939,0.8503435,"[-7.702383,0.4622388,5.4678297,0.30298904,-0.10018186,0.13439031,-0.09156408,0.47523776,0.2065939,0.8503435]",1
398,1569974881657,-8.260423,1.3723463,4.7133985,0.30298904,-0.10018186,0.13439031,-0.09156408,0.47523776,0.2065939,0.8503435,"[-8.260423,1.3723463,4.7133985,0.30298904,-0.10018186,0.13439031,-0.09156408,0.47523776,0.2065939,0.8503435]",1
399,1569974881659,-9.263936,1.954336,4.646338,0.30298904,-0.10018186,0.13439031,-0.09156408,0.47523776,0.2065939,0.8503435,"[-9.263936,1.954336,4.646338,0.30298904,-0.10018186,0.13439031,-0.09156408,0.47523776,0.2065939,0.8503435]",1
400,1569974881660,-9.263936,1.954336,4.646338,0.30298904,-0.10018186,0.13439031,-0.092256695,0.48316327,0.19139564,0.8493584,"[-9.263936,1.954336,4.646338,0.30298904,-0.10018186,0.13439031,-0.092256695,0.48316327,0.19139564,0.8493584]",1
401,1569974881675,-9.263936,1.954336,4.646338,0.30298904,-0.10018186,0.13439031,-0.092256695,0.48316327,0.19139564,0.8493584,"[-9.263936,1.954336,4.646338,0.30298904,-0.10018186,0.13439031,-0.092256695,0.48316327,0.19139564,0.8493584]",1
402,1569974881676,-9.570498,1.9806812,4.485872,0.30298904,-0.10018186,0.13439031,-0.092256695,0.48316327,0.19139564,0.8493584,"[-9.570498,1.9806812,4.485872,0.30298904,-0.10018186,0.13439031,-0.092256695,0.48316327,0.19139564,0.8493584]",1
403,1569974881678,-9.362132,1.6549586,4.550537,0.30298904,-0.10018186,0.13439031,-0.092256695,0.48316327,0.19139564,0.8493584,"[-9.362132,1.6549586,4.550537,0.30298904,-0.10018186,0.13439031,-0.092256695,0.48316327,0.19139564,0.8493584]",1
404,1569974881679,-9.362132,1.6549586,4.550537,0.30298904,-0.10018186,0.13439031,-0.16975664,0.39377826,0.3333875,0.8396274,"[-9.362132,1.6549586,4.550537,0.30298904,-0.10018186,0.13439031,-0.16975664,0.39377826,0.3333875,0.8396274]",1
405,1569974881696,-9.362132,1.6549586,4.550537,0.30298904,-0.10018186,0.13439031,-0.16975664,0.39377826,0.3333875,0.8396274,"[-9.362132,1.6549586,4.550537,0.30298904,-0.10018186,0.13439031,-0.16975664,0.39377826,0.3333875,0.8396274]",1
406,1569974881698,-9.0891,1.5184424,4.5744877,0.30298904,-0.10018186,0.13439031,-0.16975664,0.39377826,0.3333875,0.8396274,"[-9.0891,1.5184424,4.5744877,0.30298904,-0.10018186,0.13439031,-0.16975664,0.39377826,0.3333875,0.8396274]",1
407,1569974881699,-8.741821,1.331631,4.160149,0.30298904,-0.10018186,0.13439031,-0.16975664,0.39377826,0.3333875,0.8396274,"[-8.741821,1.331631,4.160149,0.30298904,-0.10018186,0.13439031,-0.16975664,0.39377826,0.3333875,0.8396274]",1
408,1569974881701,-8.741821,1.331631,4.160149,0.30298904,-0.10018186,0.13439031,-0.010123954,0.50461817,0.15853606,0.8486014,"[-8.741821,1.331631,4.160149,0.30298904,-0.10018186,0.13439031,-0.010123954,0.50461817,0.15853606,0.8486014]",1
409,1569974881712,-8.741821,1.331631,4.160149,-0.11484262,0.2883283,-0.36041036,-0.010123954,0.50461817,0.15853606,0.8486014,"[-8.741821,1.331631,4.160149,-0.11484262,0.2883283,-0.36041036,-0.010123954,0.50461817,0.15853606,0.8486014]",1
410,1569974881714,-8.741821,1.331631,4.160149,-0.11484262,0.2883283,-0.36041036,-0.010123954,0.50461817,0.15853606,0.8486014,"[-8.741821,1.331631,4.160149,-0.11484262,0.2883283,-0.36041036,-0.010123954,0.50461817,0.15853606,0.8486014]",1
411,1569974881716,-8.835227,0.94603276,4.033213,-0.11484262,0.2883283,-0.36041036,-0.010123954,0.50461817,0.15853606,0.8486014,"[-8.835227,0.94603276,4.033213,-0.11484262,0.2883283,-0.36041036,-0.010123954,0.50461817,0.15853606,0.8486014]",1
412,1569974881718,-9.086704,0.2778223,3.9709425,-0.11484262,0.2883283,-0.36041036,-0.010123954,0.50461817,0.15853606,0.8486014,"[-9.086704,0.2778223,3.9709425,-0.11484262,0.2883283,-0.36041036,-0.010123954,0.50461817,0.15853606,0.8486014]",1
413,1569974881719,-9.086704,0.2778223,3.9709425,-0.11484262,0.2883283,-0.36041036,0.047422178,0.5377513,0.097524464,0.8361003,"[-9.086704,0.2778223,3.9709425,-0.11484262,0.2883283,-0.36041036,0.047422178,0.5377513,0.097524464,0.8361003]",1
414,1569974881732,-9.086704,0.2778223,3.9709425,-0.11484262,0.2883283,-0.36041036,0.047422178,0.5377513,0.097524464,0.8361003,"[-9.086704,0.2778223,3.9709425,-0.11484262,0.2883283,-0.36041036,0.047422178,0.5377513,0.097524464,0.8361003]",1
415,1569974881734,-9.196876,-0.7783814,3.9877076,-0.11484262,0.2883283,-0.36041036,0.047422178,0.5377513,0.097524464,0.8361003,"[-9.196876,-0.7783814,3.9877076,-0.11484262,0.2883283,-0.36041036,0.047422178,0.5377513,0.097524464,0.8361003]",1
416,1569974881736,-9.206455,-1.6525636,4.670288,-0.11484262,0.2883283,-0.36041036,0.047422178,0.5377513,0.097524464,0.8361003,"[-9.206455,-1.6525636,4.670288,-0.11484262,0.2883283,-0.36041036,0.047422178,0.5377513,0.097524464,0.8361003]",1
417,1569974881737,-9.206455,-1.6525636,4.670288,-0.11484262,0.2883283,-0.36041036,0.019584142,0.5265884,0.10879296,0.84290284,"[-9.206455,-1.6525636,4.670288,-0.11484262,0.2883283,-0.36041036,0.019584142,0.5265884,0.10879296,0.84290284]",1
418,1569974881754,-8.943004,-1.9327809,5.101392,-0.11484262,0.2883283,-0.36041036,0.019584142,0.5265884,0.10879296,0.84290284,"[-8.943004,-1.9327809,5.101392,-0.11484262,0.2883283,-0.36041036,0.019584142,0.5265884,0.10879296,0.84290284]",1
419,1569974881755,-8.471185,-1.9567311,4.28948,-0.11484262,0.2883283,-0.36041036,0.019584142,0.5265884,0.10879296,0.84290284,"[-8.471185,-1.9567311,4.28948,-0.11484262,0.2883283,-0.36041036,0.019584142,0.5265884,0.10879296,0.84290284]",1
420,1569974881757,-8.471185,-1.9567311,4.28948,-0.11484262,0.2883283,-0.36041036,0.019584142,0.5265884,0.10879296,0.84290284,"[-8.471185,-1.9567311,4.28948,-0.11484262,0.2883283,-0.36041036,0.019584142,0.5265884,0.10879296,0.84290284]",1
421,1569974881758,-8.471185,-1.9567311,4.28948,-0.11484262,0.2883283,-0.36041036,0.022090824,0.5411607,0.05533231,0.8388059,"[-8.471185,-1.9567311,4.28948,-0.11484262,0.2883283,-0.36041036,0.022090824,0.5411607,0.05533231,0.8388059]",1
422,1569974881771,-8.471185,-1.9567311,4.28948,-0.11484262,0.2883283,-0.36041036,0.022090824,0.5411607,0.05533231,0.8388059,"[-8.471185,-1.9567311,4.28948,-0.11484262,0.2883283,-0.36041036,0.022090824,0.5411607,0.05533231,0.8388059]",1
423,1569974881773,-8.590936,-1.583108,3.8679566,-0.11484262,0.2883283,-0.36041036,0.022090824,0.5411607,0.05533231,0.8388059,"[-8.590936,-1.583108,3.8679566,-0.11484262,0.2883283,-0.36041036,0.022090824,0.5411607,0.05533231,0.8388059]",1
424,1569974881774,-8.820857,-1.4441968,4.133804,-0.11484262,0.2883283,-0.36041036,0.022090824,0.5411607,0.05533231,0.8388059,"[-8.820857,-1.4441968,4.133804,-0.11484262,0.2883283,-0.36041036,0.022090824,0.5411607,0.05533231,0.8388059]",1
425,1569974881776,-8.820857,-1.4441968,4.133804,-0.11484262,0.2883283,-0.36041036,-0.02199005,0.5488252,-0.037080657,0.83482474,"[-8.820857,-1.4441968,4.133804,-0.11484262,0.2883283,-0.36041036,-0.02199005,0.5488252,-0.037080657,0.83482474]",1
426,1569974881800,-8.820857,-1.4441968,4.133804,0.29321522,0.0073303804,-0.087964565,-0.02199005,0.5488252,-0.037080657,0.83482474,"[-8.820857,-1.4441968,4.133804,0.29321522,0.0073303804,-0.087964565,-0.02199005,0.5488252,-0.037080657,0.83482474]",1
427,1569974881802,-8.820857,-1.4441968,4.133804,0.29321522,0.0073303804,-0.087964565,-0.02199005,0.5488252,-0.037080657,0.83482474,"[-8.820857,-1.4441968,4.133804,0.29321522,0.0073303804,-0.087964565,-0.02199005,0.5488252,-0.037080657,0.83482474]",1
428,1569974881804,-8.981323,-1.6908839,4.3541455,0.29321522,0.0073303804,-0.087964565,-0.02199005,0.5488252,-0.037080657,0.83482474,"[-8.981323,-1.6908839,4.3541455,0.29321522,0.0073303804,-0.087964565,-0.02199005,0.5488252,-0.037080657,0.83482474]",1
429,1569974881807,-8.923843,-2.0525317,4.6607084,0.29321522,0.0073303804,-0.087964565,-0.02199005,0.5488252,-0.037080657,0.83482474,"[-8.923843,-2.0525317,4.6607084,0.29321522,0.0073303804,-0.087964565,-0.02199005,0.5488252,-0.037080657,0.83482474]",1
430,1569974881808,-8.923843,-2.0525317,4.6607084,0.29321522,0.0073303804,-0.087964565,-0.16505854,0.47881654,0.102466546,0.8561489,"[-8.923843,-2.0525317,4.6607084,0.29321522,0.0073303804,-0.087964565,-0.16505854,0.47881654,0.102466546,0.8561489]",1
431,1569974881810,-8.923843,-2.0525317,4.6607084,0.29321522,0.0073303804,-0.087964565,-0.16505854,0.47881654,0.102466546,0.8561489,"[-8.923843,-2.0525317,4.6607084,0.29321522,0.0073303804,-0.087964565,-0.16505854,0.47881654,0.102466546,0.8561489]",1
432,1569974881812,-8.835227,-1.9878663,4.505032,0.29321522,0.0073303804,-0.087964565,-0.16505854,0.47881654,0.102466546,0.8561489,"[-8.835227,-1.9878663,4.505032,0.29321522,0.0073303804,-0.087964565,-0.16505854,0.47881654,0.102466546,0.8561489]",1
433,1569974881813,-8.734636,-1.1496094,4.497847,0.29321522,0.0073303804,-0.087964565,-0.16505854,0.47881654,0.102466546,0.8561489,"[-8.734636,-1.1496094,4.497847,0.29321522,0.0073303804,-0.087964565,-0.16505854,0.47881654,0.102466546,0.8561489]",1
434,1569974881815,-8.734636,-1.1496094,4.497847,0.29321522,0.0073303804,-0.087964565,-0.044817913,0.5436516,-0.083654635,0.8339282,"[-8.734636,-1.1496094,4.497847,0.29321522,0.0073303804,-0.087964565,-0.044817913,0.5436516,-0.083654635,0.8339282]",1
435,1569974881830,-8.428074,0.098195806,4.3373804,0.29321522,0.0073303804,-0.087964565,-0.044817913,0.5436516,-0.083654635,0.8339282,"[-8.428074,0.098195806,4.3373804,0.29321522,0.0073303804,-0.087964565,-0.044817913,0.5436516,-0.083654635,0.8339282]",1
436,1569974881832,-8.128696,1.1184741,4.3206153,0.29321522,0.0073303804,-0.087964565,-0.044817913,0.5436516,-0.083654635,0.8339282,"[-8.128696,1.1184741,4.3206153,0.29321522,0.0073303804,-0.087964565,-0.044817913,0.5436516,-0.083654635,0.8339282]",1
437,1569974881833,-8.128696,1.1184741,4.3206153,0.29321522,0.0073303804,-0.087964565,-0.044817913,0.5436516,-0.083654635,0.8339282,"[-8.128696,1.1184741,4.3206153,0.29321522,0.0073303804,-0.087964565,-0.044817913,0.5436516,-0.083654635,0.8339282]",1
438,1569974881834,-8.128696,1.1184741,4.3206153,0.29321522,0.0073303804,-0.087964565,-0.079216294,0.5278918,-0.03139726,0.8450262,"[-8.128696,1.1184741,4.3206153,0.29321522,0.0073303804,-0.087964565,-0.079216294,0.5278918,-0.03139726,0.8450262]",1
439,1569974881852,-8.083191,1.8465601,4.615203,0.29321522,0.0073303804,-0.087964565,-0.079216294,0.5278918,-0.03139726,0.8450262,"[-8.083191,1.8465601,4.615203,0.29321522,0.0073303804,-0.087964565,-0.079216294,0.5278918,-0.03139726,0.8450262]",1
440,1569974881854,-8.198153,1.7866846,4.181704,0.29321522,0.0073303804,-0.087964565,-0.079216294,0.5278918,-0.03139726,0.8450262,"[-8.198153,1.7866846,4.181704,0.29321522,0.0073303804,-0.087964565,-0.079216294,0.5278918,-0.03139726,0.8450262]",1
441,1569974881856,-8.198153,1.7866846,4.181704,0.29321522,0.0073303804,-0.087964565,-0.079216294,0.5278918,-0.03139726,0.8450262,"[-8.198153,1.7866846,4.181704,0.29321522,0.0073303804,-0.087964565,-0.079216294,0.5278918,-0.03139726,0.8450262]",1
442,1569974881858,-8.198153,1.7866846,4.181704,0.29321522,0.0073303804,-0.087964565,-0.12283766,0.5120691,0.0120102,0.85003054,"[-8.198153,1.7866846,4.181704,0.29321522,0.0073303804,-0.087964565,-0.12283766,0.5120691,0.0120102,0.85003054]",1
443,1569974881866,-8.198153,1.7866846,4.181704,-0.18814643,0.25289813,0.05619958,-0.12283766,0.5120691,0.0120102,0.85003054,"[-8.198153,1.7866846,4.181704,-0.18814643,0.25289813,0.05619958,-0.12283766,0.5120691,0.0120102,0.85003054]",1
444,1569974881869,-8.198153,1.7866846,4.181704,-0.18814643,0.25289813,0.05619958,-0.12283766,0.5120691,0.0120102,0.85003054,"[-8.198153,1.7866846,4.181704,-0.18814643,0.25289813,0.05619958,-0.12283766,0.5120691,0.0120102,0.85003054]",1
445,1569974881871,-8.830438,1.0585986,3.1255007,-0.18814643,0.25289813,0.05619958,-0.12283766,0.5120691,0.0120102,0.85003054,"[-8.830438,1.0585986,3.1255007,-0.18814643,0.25289813,0.05619958,-0.12283766,0.5120691,0.0120102,0.85003054]",1
446,1569974881872,-9.625584,0.73527104,3.1231055,-0.18814643,0.25289813,0.05619958,-0.12283766,0.5120691,0.0120102,0.85003054,"[-9.625584,0.73527104,3.1231055,-0.18814643,0.25289813,0.05619958,-0.12283766,0.5120691,0.0120102,0.85003054]",1
447,1569974881874,-9.625584,0.73527104,3.1231055,-0.18814643,0.25289813,0.05619958,-0.017526856,0.5204885,0.038668808,0.8528125,"[-9.625584,0.73527104,3.1231055,-0.18814643,0.25289813,0.05619958,-0.017526856,0.5204885,0.038668808,0.8528125]",1
448,1569974881887,-9.625584,0.73527104,3.1231055,-0.18814643,0.25289813,0.05619958,-0.017526856,0.5204885,0.038668808,0.8528125,"[-9.625584,0.73527104,3.1231055,-0.18814643,0.25289813,0.05619958,-0.017526856,0.5204885,0.038668808,0.8528125]",1
449,1569974881888,-9.7740755,0.9987232,3.7625759,-0.18814643,0.25289813,0.05619958,-0.017526856,0.5204885,0.038668808,0.8528125,"[-9.7740755,0.9987232,3.7625759,-0.18814643,0.25289813,0.05619958,-0.017526856,0.5204885,0.038668808,0.8528125]",1
450,1569974881890,-9.036409,1.4058765,3.894302,-0.18814643,0.25289813,0.05619958,-0.017526856,0.5204885,0.038668808,0.8528125,"[-9.036409,1.4058765,3.894302,-0.18814643,0.25289813,0.05619958,-0.017526856,0.5204885,0.038668808,0.8528125]",1
451,1569974881892,-9.036409,1.4058765,3.894302,-0.18814643,0.25289813,0.05619958,0.052536443,0.5040456,0.103831075,0.855802,"[-9.036409,1.4058765,3.894302,-0.18814643,0.25289813,0.05619958,0.052536443,0.5040456,0.103831075,0.855802]",1
452,1569974881906,-9.036409,1.4058765,3.894302,-0.18814643,0.25289813,0.05619958,0.052536443,0.5040456,0.103831075,0.855802,"[-9.036409,1.4058765,3.894302,-0.18814643,0.25289813,0.05619958,0.052536443,0.5040456,0.103831075,0.855802]",1
453,1569974881908,-8.248447,1.5998731,3.779341,-0.18814643,0.25289813,0.05619958,0.052536443,0.5040456,0.103831075,0.855802,"[-8.248447,1.5998731,3.779341,-0.18814643,0.25289813,0.05619958,0.052536443,0.5040456,0.103831075,0.855802]",1
454,1569974881910,-7.9921803,1.0178833,3.6236646,-0.18814643,0.25289813,0.05619958,0.052536443,0.5040456,0.103831075,0.855802,"[-7.9921803,1.0178833,3.6236646,-0.18814643,0.25289813,0.05619958,0.052536443,0.5040456,0.103831075,0.855802]",1
455,1569974881912,-7.9921803,1.0178833,3.6236646,-0.18814643,0.25289813,0.05619958,0.10196215,0.56905854,-0.04728583,0.8145797,"[-7.9921803,1.0178833,3.6236646,-0.18814643,0.25289813,0.05619958,0.10196215,0.56905854,-0.04728583,0.8145797]",1
456,1569974881926,-8.238868,-0.24668702,3.3314724,-0.18814643,0.25289813,0.05619958,0.10196215,0.56905854,-0.04728583,0.8145797,"[-8.238868,-0.24668702,3.3314724,-0.18814643,0.25289813,0.05619958,0.10196215,0.56905854,-0.04728583,0.8145797]",1
457,1569974881928,-8.705896,-1.3483961,3.7338357,-0.18814643,0.25289813,0.05619958,0.10196215,0.56905854,-0.04728583,0.8145797,"[-8.705896,-1.3483961,3.7338357,-0.18814643,0.25289813,0.05619958,0.10196215,0.56905854,-0.04728583,0.8145797]",1
458,1569974881929,-8.705896,-1.3483961,3.7338357,-0.18814643,0.25289813,0.05619958,0.10196215,0.56905854,-0.04728583,0.8145797,"[-8.705896,-1.3483961,3.7338357,-0.18814643,0.25289813,0.05619958,0.10196215,0.56905854,-0.04728583,0.8145797]",1
459,1569974881931,-8.705896,-1.3483961,3.7338357,-0.18814643,0.25289813,0.05619958,0.08691526,0.5600263,-0.0429411,0.8227833,"[-8.705896,-1.3483961,3.7338357,-0.18814643,0.25289813,0.05619958,0.08691526,0.5600263,-0.0429411,0.8227833]",1
460,1569974881947,-8.705896,-1.3483961,3.7338357,-0.91263235,0.42516205,-0.40805784,0.08691526,0.5600263,-0.0429411,0.8227833,"[-8.705896,-1.3483961,3.7338357,-0.91263235,0.42516205,-0.40805784,0.08691526,0.5600263,-0.0429411,0.8227833]",1
461,1569974881949,-9.115445,-2.2393434,4.1888895,-0.91263235,0.42516205,-0.40805784,0.08691526,0.5600263,-0.0429411,0.8227833,"[-9.115445,-2.2393434,4.1888895,-0.91263235,0.42516205,-0.40805784,0.08691526,0.5600263,-0.0429411,0.8227833]",1
462,1569974881952,-9.189691,-2.6488917,4.414021,-0.91263235,0.42516205,-0.40805784,0.08691526,0.5600263,-0.0429411,0.8227833,"[-9.189691,-2.6488917,4.414021,-0.91263235,0.42516205,-0.40805784,0.08691526,0.5600263,-0.0429411,0.8227833]",1
463,1569974881966,-9.189691,-2.6488917,4.414021,-0.91263235,0.42516205,-0.40805784,0.08691526,0.5600263,-0.0429411,0.8227833,"[-9.189691,-2.6488917,4.414021,-0.91263235,0.42516205,-0.40805784,0.08691526,0.5600263,-0.0429411,0.8227833]",1
464,1569974881966,-9.189691,-2.6488917,4.414021,-0.91263235,0.42516205,-0.40805784,0.09044887,0.53545356,0.020353585,0.8394607,"[-9.189691,-2.6488917,4.414021,-0.91263235,0.42516205,-0.40805784,0.09044887,0.53545356,0.020353585,0.8394607]",1
465,1569974881966,-9.189691,-2.6488917,4.414021,-0.91263235,0.42516205,-0.40805784,0.09044887,0.53545356,0.020353585,0.8394607,"[-9.189691,-2.6488917,4.414021,-0.91263235,0.42516205,-0.40805784,0.09044887,0.53545356,0.020353585,0.8394607]",1
466,1569974881966,-8.799302,-2.2489235,4.430786,-0.91263235,0.42516205,-0.40805784,0.09044887,0.53545356,0.020353585,0.8394607,"[-8.799302,-2.2489235,4.430786,-0.91263235,0.42516205,-0.40805784,0.09044887,0.53545356,0.020353585,0.8394607]",1
467,1569974881966,-8.372989,-1.5423926,4.232,-0.91263235,0.42516205,-0.40805784,0.09044887,0.53545356,0.020353585,0.8394607,"[-8.372989,-1.5423926,4.232,-0.91263235,0.42516205,-0.40805784,0.09044887,0.53545356,0.020353585,0.8394607]",1
468,1569974881966,-8.372989,-1.5423926,4.232,-0.91263235,0.42516205,-0.40805784,0.05423419,0.556502,-0.10507679,0.82238865,"[-8.372989,-1.5423926,4.232,-0.91263235,0.42516205,-0.40805784,0.05423419,0.556502,-0.10507679,0.82238865]",1
469,1569974881982,-8.372989,-1.5423926,4.232,-0.91263235,0.42516205,-0.40805784,0.05423419,0.556502,-0.10507679,0.82238865,"[-8.372989,-1.5423926,4.232,-0.91263235,0.42516205,-0.40805784,0.05423419,0.556502,-0.10507679,0.82238865]",1
470,1569974881983,-8.5119,-1.4585669,4.7469287,-0.91263235,0.42516205,-0.40805784,0.05423419,0.556502,-0.10507679,0.82238865,"[-8.5119,-1.4585669,4.7469287,-0.91263235,0.42516205,-0.40805784,0.05423419,0.556502,-0.10507679,0.82238865]",1
471,1569974881983,-8.765772,-1.575923,5.407954,-0.91263235,0.42516205,-0.40805784,0.05423419,0.556502,-0.10507679,0.82238865,"[-8.765772,-1.575923,5.407954,-0.91263235,0.42516205,-0.40805784,0.05423419,0.556502,-0.10507679,0.82238865]",1
472,1569974881983,-8.765772,-1.575923,5.407954,-0.91263235,0.42516205,-0.40805784,-0.012913205,0.54412204,-0.18075383,0.81920236,"[-8.765772,-1.575923,5.407954,-0.91263235,0.42516205,-0.40805784,-0.012913205,0.54412204,-0.18075383,0.81920236]",1
473,1569974882006,-8.765772,-1.575923,5.407954,-0.91263235,0.42516205,-0.40805784,-0.012913205,0.54412204,-0.18075383,0.81920236,"[-8.765772,-1.575923,5.407954,-0.91263235,0.42516205,-0.40805784,-0.012913205,0.54412204,-0.18075383,0.81920236]",1
474,1569974882006,-8.820857,-1.6357985,5.0271463,-0.91263235,0.42516205,-0.40805784,-0.012913205,0.54412204,-0.18075383,0.81920236,"[-8.820857,-1.6357985,5.0271463,-0.91263235,0.42516205,-0.40805784,-0.012913205,0.54412204,-0.18075383,0.81920236]",1
475,1569974882006,-8.914263,-1.1400293,4.86189,-0.91263235,0.42516205,-0.40805784,-0.012913205,0.54412204,-0.18075383,0.81920236,"[-8.914263,-1.1400293,4.86189,-0.91263235,0.42516205,-0.40805784,-0.012913205,0.54412204,-0.18075383,0.81920236]",1
476,1569974882006,-8.914263,-1.1400293,4.86189,-0.91263235,0.42516205,-0.40805784,-0.047363453,0.5277557,-0.13571484,0.8371452,"[-8.914263,-1.1400293,4.86189,-0.91263235,0.42516205,-0.40805784,-0.047363453,0.5277557,-0.13571484,0.8371452]",1
477,1569974882023,-8.914263,-1.1400293,4.86189,0.89308465,-0.05619958,0.33841923,-0.047363453,0.5277557,-0.13571484,0.8371452,"[-8.914263,-1.1400293,4.86189,0.89308465,-0.05619958,0.33841923,-0.047363453,0.5277557,-0.13571484,0.8371452]",1
478,1569974882023,-8.883128,-0.45505372,4.6846585,0.89308465,-0.05619958,0.33841923,-0.047363453,0.5277557,-0.13571484,0.8371452,"[-8.883128,-0.45505372,4.6846585,0.89308465,-0.05619958,0.33841923,-0.047363453,0.5277557,-0.13571484,0.8371452]",1
479,1569974882023,-8.782537,0.09101075,4.6104126,0.89308465,-0.05619958,0.33841923,-0.047363453,0.5277557,-0.13571484,0.8371452,"[-8.782537,0.09101075,4.6104126,0.89308465,-0.05619958,0.33841923,-0.047363453,0.5277557,-0.13571484,0.8371452]",1
480,1569974882024,-8.782537,0.09101075,4.6104126,0.89308465,-0.05619958,0.33841923,-0.047363453,0.5277557,-0.13571484,0.8371452,"[-8.782537,0.09101075,4.6104126,0.89308465,-0.05619958,0.33841923,-0.047363453,0.5277557,-0.13571484,0.8371452]",1
481,1569974882024,-8.782537,0.09101075,4.6104126,0.89308465,-0.05619958,0.33841923,-0.060170382,0.505501,-0.04407932,0.859596,"[-8.782537,0.09101075,4.6104126,0.89308465,-0.05619958,0.33841923,-0.060170382,0.505501,-0.04407932,0.859596]",1
482,1569974882042,-8.782537,0.09101075,4.6104126,0.89308465,-0.05619958,0.33841923,-0.060170382,0.505501,-0.04407932,0.859596,"[-8.782537,0.09101075,4.6104126,0.89308465,-0.05619958,0.33841923,-0.060170382,0.505501,-0.04407932,0.859596]",1
483,1569974882042,-8.681946,0.8095166,4.9648757,0.89308465,-0.05619958,0.33841923,-0.060170382,0.505501,-0.04407932,0.859596,"[-8.681946,0.8095166,4.9648757,0.89308465,-0.05619958,0.33841923,-0.060170382,0.505501,-0.04407932,0.859596]",1
484,1569974882042,-8.741821,1.5783179,4.6726832,0.89308465,-0.05619958,0.33841923,-0.060170382,0.505501,-0.04407932,0.859596,"[-8.741821,1.5783179,4.6726832,0.89308465,-0.05619958,0.33841923,-0.060170382,0.505501,-0.04407932,0.859596]",1
485,1569974882042,-8.741821,1.5783179,4.6726832,0.89308465,-0.05619958,0.33841923,-0.074844696,0.49997646,-0.029993957,0.8622773,"[-8.741821,1.5783179,4.6726832,0.89308465,-0.05619958,0.33841923,-0.074844696,0.49997646,-0.029993957,0.8622773]",1
486,1569974882060,-8.741821,1.5783179,4.6726832,0.89308465,-0.05619958,0.33841923,-0.074844696,0.49997646,-0.029993957,0.8622773,"[-8.741821,1.5783179,4.6726832,0.89308465,-0.05619958,0.33841923,-0.074844696,0.49997646,-0.029993957,0.8622773]",1
487,1569974882061,-8.974138,2.2776637,3.5039136,0.89308465,-0.05619958,0.33841923,-0.074844696,0.49997646,-0.029993957,0.8622773,"[-8.974138,2.2776637,3.5039136,0.89308465,-0.05619958,0.33841923,-0.074844696,0.49997646,-0.029993957,0.8622773]",1
488,1569974882061,-9.515413,2.7327175,3.0656252,0.89308465,-0.05619958,0.33841923,-0.074844696,0.49997646,-0.029993957,0.8622773,"[-9.515413,2.7327175,3.0656252,0.89308465,-0.05619958,0.33841923,-0.074844696,0.49997646,-0.029993957,0.8622773]",1
489,1569974882062,-9.515413,2.7327175,3.0656252,0.89308465,-0.05619958,0.33841923,-0.005827444,0.5166897,-0.034154914,0.8554714,"[-9.515413,2.7327175,3.0656252,0.89308465,-0.05619958,0.33841923,-0.005827444,0.5166897,-0.034154914,0.8554714]",1
490,1569974882081,-9.975257,2.5243506,2.9746144,0.89308465,-0.05619958,0.33841923,-0.005827444,0.5166897,-0.034154914,0.8554714,"[-9.975257,2.5243506,2.9746144,0.89308465,-0.05619958,0.33841923,-0.005827444,0.5166897,-0.034154914,0.8554714]",1
491,1569974882081,-9.745335,1.7292042,2.9746144,0.89308465,-0.05619958,0.33841923,-0.005827444,0.5166897,-0.034154914,0.8554714,"[-9.745335,1.7292042,2.9746144,0.89308465,-0.05619958,0.33841923,-0.005827444,0.5166897,-0.034154914,0.8554714]",1
492,1569974882083,-9.745335,1.7292042,2.9746144,0.89308465,-0.05619958,0.33841923,-0.005827444,0.5166897,-0.034154914,0.8554714,"[-9.745335,1.7292042,2.9746144,0.89308465,-0.05619958,0.33841923,-0.005827444,0.5166897,-0.034154914,0.8554714]",1
493,1569974882083,-9.745335,1.7292042,2.9746144,0.89308465,-0.05619958,0.33841923,0.03144085,0.5016067,0.026255177,0.8641255,"[-9.745335,1.7292042,2.9746144,0.89308465,-0.05619958,0.33841923,0.03144085,0.5016067,0.026255177,0.8641255]",1
494,1569974882103,-9.745335,1.7292042,2.9746144,0.05742131,0.5668827,-0.2553416,0.03144085,0.5016067,0.026255177,0.8641255,"[-9.745335,1.7292042,2.9746144,0.05742131,0.5668827,-0.2553416,0.03144085,0.5016067,0.026255177,0.8641255]",1
495,1569974882103,-9.460327,1.2765454,3.5566041,0.05742131,0.5668827,-0.2553416,0.03144085,0.5016067,0.026255177,0.8641255,"[-9.460327,1.2765454,3.5566041,0.05742131,0.5668827,-0.2553416,0.03144085,0.5016067,0.026255177,0.8641255]",1
496,1569974882104,-9.201666,1.2166699,3.7506008,0.05742131,0.5668827,-0.2553416,0.03144085,0.5016067,0.026255177,0.8641255,"[-9.201666,1.2166699,3.7506008,0.05742131,0.5668827,-0.2553416,0.03144085,0.5016067,0.026255177,0.8641255]",1
497,1569974882104,-9.201666,1.2166699,3.7506008,0.05742131,0.5668827,-0.2553416,0.03144085,0.5016067,0.026255177,0.8641255,"[-9.201666,1.2166699,3.7506008,0.05742131,0.5668827,-0.2553416,0.03144085,0.5016067,0.026255177,0.8641255]",1
498,1569974882105,-9.201666,1.2166699,3.7506008,0.05742131,0.5668827,-0.2553416,0.14905123,0.5484612,-0.013821447,0.82266825,"[-9.201666,1.2166699,3.7506008,0.05742131,0.5668827,-0.2553416,0.14905123,0.5484612,-0.013821447,0.82266825]",1
499,1569974882117,-8.957374,0.6466553,2.6153615,0.05742131,0.5668827,-0.2553416,0.14905123,0.5484612,-0.013821447,0.82266825,"[-8.957374,0.6466553,2.6153615,0.05742131,0.5668827,-0.2553416,0.14905123,0.5484612,-0.013821447,0.82266825]",1
500,1569974882118,-9.481883,-0.16046631,1.8010547,0.05742131,0.5668827,-0.2553416,0.14905123,0.5484612,-0.013821447,0.82266825,"[-9.481883,-0.16046631,1.8010547,0.05742131,0.5668827,-0.2553416,0.14905123,0.5484612,-0.013821447,0.82266825]",1
501,1569974882119,-9.481883,-0.16046631,1.8010547,0.05742131,0.5668827,-0.2553416,0.14905123,0.5484612,-0.013821447,0.82266825,"[-9.481883,-0.16046631,1.8010547,0.05742131,0.5668827,-0.2553416,0.14905123,0.5484612,-0.013821447,0.82266825]",1
502,1569974882120,-9.481883,-0.16046631,1.8010547,0.05742131,0.5668827,-0.2553416,0.18410815,0.5720549,-0.050728682,0.79767406,"[-9.481883,-0.16046631,1.8010547,0.05742131,0.5668827,-0.2553416,0.18410815,0.5720549,-0.050728682,0.79767406]",1
503,1569974882136,-10.245894,-0.79993653,2.0094216,0.05742131,0.5668827,-0.2553416,0.18410815,0.5720549,-0.050728682,0.79767406,"[-10.245894,-0.79993653,2.0094216,0.05742131,0.5668827,-0.2553416,0.18410815,0.5720549,-0.050728682,0.79767406]",1
504,1569974882137,-10.080638,-1.4801221,1.7627344,0.05742131,0.5668827,-0.2553416,0.18410815,0.5720549,-0.050728682,0.79767406,"[-10.080638,-1.4801221,1.7627344,0.05742131,0.5668827,-0.2553416,0.18410815,0.5720549,-0.050728682,0.79767406]",1
505,1569974882138,-10.080638,-1.4801221,1.7627344,0.05742131,0.5668827,-0.2553416,0.18410815,0.5720549,-0.050728682,0.79767406,"[-10.080638,-1.4801221,1.7627344,0.05742131,0.5668827,-0.2553416,0.18410815,0.5720549,-0.050728682,0.79767406]",1
506,1569974882139,-10.080638,-1.4801221,1.7627344,0.05742131,0.5668827,-0.2553416,0.12537555,0.556522,-0.071739584,0.8181794,"[-10.080638,-1.4801221,1.7627344,0.05742131,0.5668827,-0.2553416,0.12537555,0.556522,-0.071739584,0.8181794]",1
507,1569974882159,-10.080638,-1.4801221,1.7627344,0.05742131,0.5668827,-0.2553416,0.12537555,0.556522,-0.071739584,0.8181794,"[-10.080638,-1.4801221,1.7627344,0.05742131,0.5668827,-0.2553416,0.12537555,0.556522,-0.071739584,0.8181794]",1
508,1569974882160,-9.601634,-1.8345851,1.4058765,0.05742131,0.5668827,-0.2553416,0.12537555,0.556522,-0.071739584,0.8181794,"[-9.601634,-1.8345851,1.4058765,0.05742131,0.5668827,-0.2553416,0.12537555,0.556522,-0.071739584,0.8181794]",1
509,1569974882160,-9.261541,-1.7292042,1.829795,0.05742131,0.5668827,-0.2553416,0.12537555,0.556522,-0.071739584,0.8181794,"[-9.261541,-1.7292042,1.829795,0.05742131,0.5668827,-0.2553416,0.12537555,0.556522,-0.071739584,0.8181794]",1
510,1569974882161,-9.261541,-1.7292042,1.829795,0.05742131,0.5668827,-0.2553416,0.14915715,0.58133423,-0.14248691,0.7870833,"[-9.261541,-1.7292042,1.829795,0.05742131,0.5668827,-0.2553416,0.14915715,0.58133423,-0.14248691,0.7870833]",1
511,1569974882180,-9.261541,-1.7292042,1.829795,-0.01588249,-0.09285148,-0.31642807,0.14915715,0.58133423,-0.14248691,0.7870833,"[-9.261541,-1.7292042,1.829795,-0.01588249,-0.09285148,-0.31642807,0.14915715,0.58133423,-0.14248691,0.7870833]",1
